"Time (s)","Gyroscope x (rad/s)","Gyroscope y (rad/s)","Gyroscope z (rad/s)"
1.180573000E-2,-1.191186346E-2,-1.621845961E-1,-7.177661173E-3
2.155593900E-2,4.673115537E-2,-1.084285006E-1,-1.572976820E-2
3.130614700E-2,5.467239767E-2,-1.557705179E-2,-3.466657549E-2
4.105635500E-2,4.062250629E-2,6.933315098E-2,-4.199695215E-2
5.080666800E-2,2.840521187E-2,1.395826042E-1,-3.649916872E-2
6.055687600E-2,4.581485875E-3,1.817322671E-1,-2.855792828E-2
7.030708400E-2,-3.207040206E-2,2.073885947E-1,-7.177661173E-3
8.005729300E-2,-6.688969582E-2,2.214384824E-1,1.420260593E-2
8.980760500E-2,-8.155044913E-2,2.177732885E-1,3.130681813E-2
9.955781400E-2,-6.322450191E-2,2.232710719E-1,3.863719851E-2
1.093080220E-1,-3.268126398E-2,2.574795187E-1,3.008509055E-2
1.190582300E-1,-9.468403645E-3,2.544251680E-1,3.130681813E-2
1.288084390E-1,-3.054323897E-4,1.860083193E-1,5.696314201E-2
1.385587510E-1,-2.412915789E-2,1.139262840E-1,7.895427197E-2
1.483089590E-1,-7.910698652E-2,6.688969582E-2,7.467821985E-2
1.580591680E-1,-1.334739476E-1,2.962694131E-2,4.902189970E-2
1.678093760E-1,-1.401934624E-1,-2.168569900E-2,2.336557768E-2
1.775595840E-1,-1.023198515E-1,-7.544180006E-2,1.359174121E-2
1.873097930E-1,-7.055488229E-2,-1.047633067E-1,-4.123337101E-3
1.970600010E-1,-3.634645417E-2,-1.218675226E-1,-1.634063199E-2
2.068103140E-1,3.359756200E-3,-1.114828214E-1,-1.695149764E-2
2.165605220E-1,1.679878123E-2,-7.666353136E-2,-2.183841541E-2
2.263107300E-1,2.412915789E-2,-4.184423760E-2,-2.855792828E-2
2.360609390E-1,7.360920310E-2,-2.107483521E-2,-2.000582218E-2
2.458111470E-1,1.615737379E-1,-1.313359290E-2,-9.621120058E-3
2.555613550E-1,2.379318327E-1,-2.748891478E-3,-1.511890348E-2
2.653115640E-1,2.715294063E-1,-9.468403645E-3,-2.672533318E-2
2.750618760E-1,2.739728391E-1,-2.779434808E-2,-2.916879393E-2
2.848120840E-1,2.580903769E-1,-4.978547990E-2,-1.939495653E-2
2.945622930E-1,2.348775119E-1,-5.467239767E-2,-1.450803876E-2
3.043125010E-1,2.153298408E-1,-2.718348242E-2,-3.344484791E-2
3.140627090E-1,1.945604384E-1,2.474002354E-2,-6.215549260E-2
3.238129180E-1,1.762344837E-1,5.711585656E-2,-6.887500733E-2
3.335631260E-1,1.554650813E-1,4.612028971E-2,-5.177079141E-2
3.433133340E-1,1.310304999E-1,1.985310577E-2,-2.977965772E-2
3.530635430E-1,1.182023361E-1,-5.192350596E-3,-1.634063199E-2
3.628137510E-1,1.072067693E-1,-2.351829410E-2,-9.010255337E-3
3.725639590E-1,8.032871783E-2,-3.451386094E-2,-9.010255337E-3
3.823142720E-1,3.695731983E-2,-1.618791744E-2,-3.466657549E-2
3.920644800E-1,-9.468403645E-3,1.924224012E-2,-5.115992576E-2
4.018146890E-1,-4.978547990E-2,4.123337194E-2,-4.382954910E-2
4.115648970E-1,-7.605266571E-2,4.978547990E-2,-1.878409274E-2
4.213151050E-1,-5.528326333E-2,6.139190868E-2,1.985310577E-3
4.310653140E-1,-1.130099874E-2,7.544180006E-2,1.298087649E-2
4.408155220E-1,2.351829410E-2,8.216131479E-2,5.207622424E-2
4.505657300E-1,4.734202102E-2,7.177661359E-2,1.125518382E-1
4.603159390E-1,6.261363626E-2,4.856374860E-2,1.583666950E-1
4.700661470E-1,6.933315098E-2,9.468403645E-3,1.791360974E-1
4.798163550E-1,4.917461425E-2,-5.711585656E-2,1.852447391E-1
4.895665640E-1,2.535088919E-2,-1.359174103E-1,2.005163580E-1
4.993167720E-1,1.557705179E-2,-2.348775119E-1,2.182314396E-1
5.090669800E-1,3.451386094E-2,-3.344484568E-1,2.060141414E-1
5.188171890E-1,9.437860548E-2,-3.527744114E-1,1.950185746E-1
5.285673970E-1,1.908952445E-1,-3.552178741E-1,2.237292230E-1
5.383176050E-1,2.825249732E-1,-3.961458206E-1,2.695440948E-1
5.480678140E-1,3.472766280E-1,-4.095848203E-1,3.116937578E-1
5.578180220E-1,3.772090077E-1,-3.460549116E-1,3.049742281E-1
5.675682300E-1,3.631591201E-1,-2.055560052E-1,2.353356630E-1
5.773184390E-1,3.063486814E-1,-5.406153202E-2,1.400407553E-1
5.870686470E-1,2.336557806E-1,3.512472659E-2,5.085449293E-2
5.968188550E-1,1.841757298E-1,6.627883017E-2,-1.878409274E-2
6.065690640E-1,1.438586563E-1,8.155044913E-2,-7.192932814E-2
6.163192720E-1,1.108719558E-1,6.261363626E-2,-1.214093715E-1
6.260694800E-1,1.023198515E-1,3.359756200E-3,-1.556178033E-1
6.358196890E-1,1.151480079E-1,-3.695731983E-2,-1.708894223E-1
6.455698970E-1,1.627954692E-1,-2.962694131E-2,-1.513417512E-1
6.553201050E-1,2.171624303E-1,-3.054323897E-4,-9.636391699E-2
6.650703140E-1,2.104429156E-1,1.007926930E-2,-3.955349326E-2
6.748205220E-1,1.554650813E-1,2.718348242E-2,1.481347065E-2
6.845707300E-1,9.010255337E-2,4.062250629E-2,4.474584386E-2
6.943209390E-1,3.084867075E-2,3.940077871E-2,3.619373962E-2
7.040711470E-1,-2.535088919E-2,9.468403645E-3,3.817904973E-3
7.138213550E-1,-8.093958348E-2,-4.917461425E-2,-2.550360374E-2
7.235714590E-1,-1.157588735E-1,-1.072067693E-1,-4.993819445E-2
7.333216680E-1,-1.450803876E-1,-1.182023361E-1,-6.215549260E-2
7.430718760E-1,-1.640172005E-1,-1.133154184E-1,-6.520981342E-2
7.528220840E-1,-1.328630894E-1,-7.910698652E-2,-5.665770918E-2
7.625722930E-1,-6.017018110E-2,-3.817904741E-2,-4.199695215E-2
7.723225010E-1,1.374445762E-2,-2.474002354E-2,-3.772090003E-2
7.820727090E-1,5.283980444E-2,-1.985310577E-2,-2.733619884E-2
7.918229180E-1,4.428769648E-2,-6.078104675E-2,-4.123337101E-3
8.015731260E-1,5.803215317E-3,-1.102610901E-1,1.175914705E-2
8.113233340E-1,-6.414080039E-3,-1.524107605E-1,2.519817278E-2
8.210735430E-1,4.184423760E-2,-1.731801629E-1,3.741546720E-2
8.308236470E-1,1.707367003E-1,-1.572976857E-1,6.123919412E-2
8.405738550E-1,3.937023580E-1,-8.582650125E-2,8.445205539E-2
8.503240640E-1,6.166679859E-1,-3.359756200E-3,1.156061590E-1
8.600742720E-1,7.461713552E-1,1.740964688E-2,1.400407553E-1
8.698244800E-1,7.583886385E-1,-5.100720748E-2,1.296560466E-1
8.795746890E-1,6.643154621E-1,-1.377500147E-1,9.911280870E-2
8.893248970E-1,4.938841760E-1,-1.640172005E-1,6.246092543E-2
8.990751050E-1,2.696968019E-1,-1.096502244E-1,2.641990222E-2
9.088252090E-1,2.718348242E-2,5.803215317E-3,-8.399390616E-3
9.185754180E-1,-1.853974611E-1,1.658497900E-1,-4.627300799E-2
9.283256260E-1,-3.423897028E-1,3.142899275E-1,-8.292489499E-2
9.380758340E-1,-3.906480372E-1,3.723220825E-1,-1.079703495E-1
9.478260430E-1,-2.800815105E-1,4.218021333E-1,-1.232419685E-1
9.575762510E-1,-7.299833745E-2,4.688387215E-1,-1.067486182E-1
9.673263550E-1,1.334739476E-1,3.973675370E-1,-4.321868345E-2
9.770765640E-1,2.910770774E-1,1.811214089E-1,4.291325063E-2
9.868267720E-1,3.869828284E-1,-1.169806048E-1,1.156061590E-1
9.965769800E-1,4.028653204E-1,-4.688387215E-1,1.516471803E-1
1.006327189E0,3.326158822E-1,-7.761036754E-1,1.382081509E-1
1.016077397E0,2.244928032E-1,-9.385937452E-1,1.278234571E-1
1.025827501E0,1.371391416E-1,-1.003956318E0,1.577558219E-1
1.035577709E0,2.290742844E-2,-1.050992846E0,2.243400961E-1
1.045327918E0,-5.406153202E-2,-1.077260017E0,3.190241456E-1
1.055078126E0,2.596175298E-2,-1.031445146E0,3.532325625E-1
1.064828334E0,2.165515572E-1,-7.987056971E-1,3.257436454E-1
1.074578439E0,4.065304995E-1,-4.957167804E-1,2.866483033E-1
1.084328647E0,4.841103256E-1,-3.387245238E-1,2.426660359E-1
1.094078855E0,3.497200906E-1,-2.696968019E-1,1.443168074E-1
1.103829064E0,2.474002354E-2,-1.053741723E-1,-2.290742937E-3
1.113579272E0,-2.226602137E-1,1.389717311E-1,-1.171333194E-1
1.123329376E0,-2.177732885E-1,4.266890585E-1,-1.128572673E-1
1.133079584E0,2.138026757E-3,7.174606919E-1,3.817904973E-3
1.142829793E0,2.299905866E-1,8.958331943E-1,1.149952933E-1
1.152580001E0,3.350593448E-1,8.573487401E-1,2.023489624E-1
1.162330105E0,3.509418070E-1,6.600393653E-1,2.701549530E-1
1.172080314E0,3.460549116E-1,4.291325212E-1,3.013090491E-1
1.181830522E0,2.360992432E-1,2.739728391E-1,2.585485280E-1
1.191580730E0,4.612028971E-2,1.658497900E-1,1.492037177E-1
1.201330834E0,-1.408043355E-1,1.029307172E-1,2.275471389E-2
1.211081043E0,-2.580903769E-1,2.306014597E-1,-4.566214234E-2
1.220831251E0,-1.731801629E-1,4.780016840E-1,-3.894263133E-2
1.230581459E0,5.528326333E-2,7.107411623E-1,2.458730713E-2
1.240331564E0,2.360992432E-1,6.960803866E-1,1.235474050E-1
1.250081772E0,3.173442483E-1,3.484983444E-1,2.243400961E-1
1.259831980E0,2.709185183E-1,-1.853974611E-1,3.300196826E-1
1.269582084E0,1.701258421E-1,-7.180715203E-1,4.411970973E-1
1.279332293E0,1.200349256E-1,-1.116966248E0,4.247037470E-1
1.289082501E0,1.313359290E-2,-1.211650252E0,2.127336562E-1
1.298832709E0,-1.182023361E-1,-8.194751143E-1,-6.032289565E-2
1.308582814E0,-8.277218044E-2,-1.212566569E-1,-1.996000707E-1
1.318333022E0,7.849612087E-2,4.205803871E-1,-1.464548260E-1
1.328083230E0,2.403752953E-1,7.180715203E-1,1.359174121E-2
1.337833334E0,3.014617562E-1,8.426879644E-1,1.699731201E-1
1.347583543E0,1.768453568E-1,8.103121519E-1,2.353356630E-1
1.357333751E0,-1.646280587E-1,5.146535635E-1,1.656970680E-1
1.367083959E0,-5.061014891E-1,-4.734202102E-2,8.093958721E-3
1.376834064E0,-6.276635528E-1,-6.227766275E-1,-7.070759684E-2
1.386584272E0,-4.505127668E-1,-9.508110285E-1,-5.726857483E-2
1.396334480E0,-9.010255337E-2,-8.720094562E-1,-5.726857483E-2
1.406084584E0,3.546070158E-1,-4.004218578E-1,-3.649916872E-2
1.415834793E0,7.974839807E-1,3.228420317E-1,5.696314201E-2
1.425584897E0,1.066875339E0,9.288198948E-1,2.383899838E-1
1.435335105E0,7.889318466E-1,1.017395258E0,3.636172712E-1
1.445085314E0,1.896735132E-1,6.679806113E-1,2.915352285E-1
1.454835522E0,-2.086103261E-1,1.169806048E-1,1.577558219E-1
1.464585626E0,-2.605338395E-1,-5.665770769E-1,9.117157012E-2
1.474335834E0,-1.191186346E-2,-1.234863162E0,6.246092543E-2
1.484085939E0,3.448331654E-1,-1.812741280E0,2.397644334E-2
1.493836147E0,6.233875155E-1,-2.131001711E0,2.397644334E-2
1.503586355E0,8.921679854E-1,-2.160323381E0,1.229365394E-1
1.513336459E0,1.138346553E0,-2.030209064E0,3.245218992E-1
1.523086668E0,1.244026065E0,-1.966679215E0,5.242747068E-1
1.532836876E0,1.096807718E0,-1.876271129E0,6.348412037E-1
1.542586980E0,6.899717450E-1,-1.660635948E0,6.739365458E-1
1.552337189E0,1.059850380E-1,-1.247080445E0,5.945241451E-1
1.562087397E0,-4.773908257E-1,-6.887500286E-1,3.257436454E-1
1.571837501E0,-9.789108038E-1,-1.365282834E-1,-1.403461844E-1
1.581587709E0,-1.239139199E0,2.415970266E-1,-5.606211424E-1
1.591337814E0,-1.128572702E0,5.396990180E-1,-7.548761368E-1
1.601088022E0,-7.938187718E-1,8.347467184E-1,-7.829759121E-1
1.610838230E0,-3.631591201E-1,1.219591498E0,-7.176133990E-1
1.620588334E0,1.621845961E-1,1.916588187E0,-6.149880886E-1
1.630338439E0,7.095194459E-1,2.677725792E0,-4.408916533E-1
1.640088647E0,8.268054724E-1,2.914130449E0,-3.181078434E-1
1.649838855E0,2.800815105E-1,2.382067204E0,-3.669770062E-1
1.659588959E0,-4.535670877E-1,1.440113664E0,-5.374082923E-1
1.669339168E0,-7.870992422E-1,4.615083337E-1,-5.856665969E-1
1.679089376E0,-5.763509274E-1,-2.263254076E-1,-3.077231348E-1
1.688839480E0,-1.078176349E-1,-4.285216331E-1,8.704823442E-3
1.698589689E0,3.863719702E-1,-3.087921441E-1,8.323032409E-2
1.708339793E0,7.663298845E-1,2.098320574E-1,6.872228812E-3
1.718090001E0,1.106581569E0,1.010675788E0,-1.250745654E-1
1.727840209E0,1.278234601E0,1.628260016E0,-2.008218020E-1
1.737590314E0,8.744529486E-1,1.664301038E0,-2.496909797E-1
1.747340522E0,2.214384824E-1,7.626646757E-1,-1.690568328E-1
1.757090626E0,1.191186346E-2,-5.916225314E-1,1.266017258E-1
1.766840834E0,3.069595397E-1,-1.713781118E0,3.483456373E-1
1.776590939E0,7.400626540E-1,-2.237292290E0,3.556760252E-1
1.786341147E0,1.192102671E0,-2.006385326E0,1.290451884E-1
1.796091355E0,1.618486285E0,-1.102305532E0,-3.712530732E-1
1.805841459E0,1.694844365E0,-2.495382577E-1,-8.061888218E-1
1.815591668E0,1.308777809E0,1.120936871E-1,-8.776599765E-1
1.825341772E0,7.107411623E-1,6.750056148E-2,-5.771145225E-1
1.835091980E0,2.666424811E-1,-9.132428467E-2,-2.148716897E-1
1.844842084E0,-9.132428467E-2,-1.047633067E-1,2.458730713E-2
1.854592293E0,-4.572322965E-1,5.283980444E-2,2.463312149E-1
1.864342397E0,-6.942478418E-1,1.707367003E-1,4.130973220E-1
1.874092605E0,-6.930260658E-1,3.802633286E-1,5.138899684E-1
1.883842709E0,-5.390881896E-1,7.718276381E-1,6.299542785E-1
1.893592918E0,-4.657844007E-1,1.039997339E0,5.933024287E-1
1.903343022E0,-6.111702323E-1,1.141400814E0,2.750418782E-1
1.913093230E0,-9.886846542E-1,1.116966248E0,-1.928805560E-1
1.922843334E0,-1.656970739E0,9.172134399E-1,-5.019781590E-1
1.932593543E0,-2.361908674E0,4.505127668E-1,-5.154171586E-1
1.942343751E0,-2.598313332E0,-5.406153202E-2,-1.983783394E-1
1.952093855E0,-2.184147120E0,-3.451386094E-2,3.104720116E-1
1.961843959E0,-1.154839873E0,8.445205688E-1,8.602503538E-1
1.971594168E0,-2.748891478E-3,1.787695765E0,1.136361241E0
1.981344272E0,7.956513762E-1,2.106567144E0,1.013577342E0
1.991094480E0,1.131016135E0,1.850003958E0,5.737547278E-1
2.000844584E0,1.151174664E0,1.135292172E0,2.092211880E-2
2.010594793E0,9.599739909E-1,2.415970266E-1,-3.333794475E-1
2.020344897E0,6.331613660E-1,-5.934551358E-1,-4.702131748E-1
2.030095105E0,2.837466896E-1,-1.323438525E0,-4.243983030E-1
2.039845209E0,9.804379940E-2,-1.939801097E0,-1.837175786E-1
2.049595418E0,2.629773021E-1,-2.266613722E0,2.267835438E-1
2.059345522E0,7.400626540E-1,-2.129169226E0,5.933024287E-1
2.069095730E0,1.212261200E0,-1.788917542E0,7.386882305E-1
2.078845834E0,1.471267819E0,-1.361312151E0,7.105884552E-1
2.088596043E0,1.408959627E0,-9.379828572E-1,5.444332361E-1
2.098346043E0,1.084590435E0,-4.975493550E-1,3.611738086E-1
2.108096355E0,6.808087826E-1,-5.894844979E-2,1.944077164E-1
2.117846459E0,3.240637779E-1,2.648098767E-1,3.497200832E-2
2.127596668E0,1.740964688E-2,2.794706225E-1,-5.360338464E-2
2.137346772E0,-1.841757298E-1,-5.894844979E-2,-9.941824526E-2
2.147096980E0,-1.346956789E-1,-6.899717450E-1,-2.191477418E-1
2.156847084E0,1.108719558E-1,-1.490815520E0,-3.688096106E-1
2.166597189E0,3.087921441E-1,-2.349080563E0,-3.614792228E-1
2.176347397E0,3.118464649E-1,-3.033859968E0,-2.362519503E-1
2.186097501E0,1.456912458E-1,-3.189630508E0,-1.421787739E-1
2.195847709E0,-1.679878123E-2,-2.481027365E0,-1.450803876E-2
2.205597814E0,-9.437860548E-2,-1.142622590E0,5.635227636E-2
2.215348022E0,-1.750127524E-1,3.271180987E-1,5.039634649E-3
2.225098126E0,-2.220493406E-1,1.629481792E0,-2.794706449E-2
2.234848334E0,-1.267544478E-1,2.372904301E0,-1.232419685E-1
2.244598439E0,-1.108719558E-1,2.479805470E0,-3.101665974E-1
2.254348543E0,-3.442223072E-1,1.964846611E0,-4.567741454E-1
2.264098751E0,-7.321214676E-1,1.118188024E0,-3.871355653E-1
2.273848855E0,-1.223867536E0,2.073885947E-1,-1.366809905E-1
2.283599064E0,-1.612377644E0,-5.745183229E-1,1.003345400E-1
2.293349168E0,-1.705229044E0,-1.058323264E0,2.408334464E-1
2.303099272E0,-1.477987289E0,-1.073594809E0,3.422369957E-1
2.312849480E0,-9.990693331E-1,-5.824595690E-1,3.501782417E-1
2.322599584E0,-4.657844007E-1,7.635809947E-3,1.766926348E-1
2.332349793E0,-6.078104675E-2,5.067123175E-1,-3.955349326E-2
2.342099897E0,9.254601598E-2,7.211259007E-1,-2.454149276E-1
2.351850105E0,-2.718348242E-2,7.993165851E-1,-3.846921027E-1
2.361600209E0,-4.334085584E-1,7.565560341E-1,-4.824304581E-1
2.371350314E0,-1.057712317E0,4.957167804E-1,-5.410735011E-1
2.381100522E0,-1.607490659E0,2.232710719E-1,-4.237874448E-1
2.390850626E0,-1.862221241E0,1.872300506E-1,-1.360701323E-1
2.400600834E0,-1.821293354E0,3.197877109E-1,1.699731201E-1
2.410350939E0,-1.575725675E0,4.743365049E-1,3.794997334E-1
2.420101043E0,-1.160948515E0,5.842921734E-1,3.831649423E-1
2.429851251E0,-7.247910500E-1,6.429351568E-1,2.554942071E-1
2.439601355E0,-4.114174247E-1,6.533198953E-1,1.669187993E-1
2.449351459E0,-2.318231910E-1,6.233875155E-1,7.345648855E-2
2.459101668E0,-1.414151937E-1,5.427533388E-1,-6.215549260E-2
2.468851772E0,-1.536324918E-1,4.462367296E-1,-1.898262352E-1
2.478601876E0,-3.106247485E-1,3.436114490E-1,-2.832885385E-1
2.488352084E0,-4.254673123E-1,2.886336148E-1,-3.327685893E-1
2.498102189E0,-4.034761786E-1,3.063486814E-1,-2.936732471E-1
2.507852397E0,-2.721402645E-1,2.715294063E-1,-2.698495090E-1
2.517602501E0,3.359756200E-3,2.660316229E-1,-2.869537175E-1
2.527352605E0,3.430005610E-1,2.165515572E-1,-2.961167097E-1
2.537102814E0,6.050615907E-1,6.505709887E-2,-2.967275679E-1
2.546852918E0,7.308996916E-1,-1.499672979E-1,-2.851211429E-1
2.556603022E0,6.771436334E-1,-2.709185183E-1,-2.203694731E-1
2.566353230E0,4.853320718E-1,-1.786779463E-1,-9.025526792E-2
2.576103334E0,3.417788446E-1,1.496618707E-2,1.003345400E-1
2.585853439E0,4.010327160E-1,1.908952445E-1,2.536616027E-1
2.595603647E0,6.380482912E-1,3.582721949E-1,2.292270064E-1
2.605353751E0,9.618065953E-1,5.415316224E-1,5.940660089E-2
2.615103855E0,1.202487350E0,5.781835318E-1,-1.049160287E-1
2.624854064E0,1.188437462E0,3.735437989E-1,-2.167042792E-1
2.634604168E0,9.080504775E-1,3.695731983E-2,-2.655734718E-1
2.644354272E0,5.458076596E-1,-2.525925934E-1,-2.661843300E-1
2.654104480E0,2.104429156E-1,-4.230238497E-1,-2.423606068E-1
2.663854584E0,-4.245510325E-2,-4.303542376E-1,-2.264781147E-1
2.673604689E0,-2.275471240E-1,-3.014617562E-1,-2.069304436E-1
2.683354897E0,-4.364628792E-1,3.970621154E-3,-1.696676910E-1
2.693105001E0,-6.166679859E-1,4.114174247E-1,-1.244636998E-1
2.702855105E0,-6.618719697E-1,8.469640017E-1,-1.342375278E-1
2.712605314E0,-6.594285369E-1,1.115133643E0,-1.983783394E-1
2.722355418E0,-6.520981789E-1,1.087644696E0,-2.319758981E-1
2.732105522E0,-6.068941355E-1,8.170316219E-1,-2.331976295E-1
2.741855730E0,-4.957167804E-1,3.692677617E-1,-2.118173689E-1
2.751605834E0,-3.210094273E-1,-5.467239767E-2,-1.574503928E-1
2.761355939E0,-1.591302752E-1,-2.849684060E-1,-7.070759684E-2
2.771106147E0,-1.084285006E-1,-3.216203153E-1,2.092211880E-2
2.780856251E0,-1.762344837E-1,-1.841757298E-1,1.204930767E-1
2.790606355E0,-3.362810612E-1,3.084867075E-2,1.693622619E-1
2.800356459E0,-5.085449219E-1,2.861901522E-1,1.485928595E-1
2.810106668E0,-6.038398147E-1,5.396990180E-1,6.551524997E-2
2.819856772E0,-5.965094566E-1,6.618719697E-1,-7.131846249E-2
2.829606876E0,-5.311469436E-1,6.282744408E-1,-2.478583902E-1
2.839357084E0,-4.615083337E-1,4.920515716E-1,-3.914116025E-1
2.849107189E0,-3.973675370E-1,2.813032269E-1,-3.908007443E-1
2.858857293E0,-2.990183234E-1,8.949168772E-2,-3.126100600E-1
2.868607397E0,-1.414151937E-1,-3.359756200E-3,-1.574503928E-1
2.878357605E0,-2.718348242E-2,-9.010255337E-2,7.223475724E-2
2.888107709E0,-3.268126398E-2,-1.597411335E-1,2.707658112E-1
2.897857814E0,-1.191186346E-2,-1.102610901E-1,3.556760252E-1
2.907608022E0,8.765909821E-2,-2.779434808E-2,3.178023994E-1
2.917358126E0,1.505781710E-1,1.130099874E-2,1.467602700E-1
2.927108230E0,1.884517819E-1,3.512472659E-2,-5.910116807E-2
2.936858334E0,2.758054435E-1,-3.054323897E-4,-2.038761228E-1
2.946608543E0,5.342012644E-1,-9.926552325E-2,-2.252563834E-1
2.956358647E0,7.956513762E-1,-1.994473487E-1,-7.437278330E-2
2.966108751E0,7.724385262E-1,-3.472766280E-1,1.595884264E-1
2.975858855E0,4.902189970E-1,-5.109884143E-1,3.709476292E-1
2.985609064E0,1.169806048E-1,-5.794052482E-1,4.405862093E-1
2.995359168E0,-2.868010104E-1,-6.441569328E-1,2.658788860E-1
3.005109272E0,-5.225948095E-1,-6.435460448E-1,-1.079703495E-1
3.014859376E0,-4.218021333E-1,-5.415316224E-1,-4.421133697E-1
3.024609584E0,-3.084867075E-2,-3.570504785E-1,-6.443096399E-1
3.034359689E0,4.908298552E-1,-1.915061027E-1,-6.950113773E-1
3.044109793E0,9.923498631E-1,-9.621120244E-2,-6.229293346E-1
3.053859897E0,1.370475173E0,-5.955931544E-2,-5.141954422E-1
3.063610105E0,1.522580504E0,-4.856374860E-2,-3.920224607E-1
3.073360209E0,1.435837626E0,-8.888082206E-2,-2.600756884E-1
3.083110314E0,1.190880895E0,-1.310304999E-1,-1.598938555E-1
3.092860418E0,9.263764620E-1,-7.788526267E-2,-9.208786488E-2
3.102610626E0,7.180715203E-1,5.283980444E-2,-4.566214234E-2
3.112360730E0,5.665770769E-1,2.251036763E-1,-1.328630932E-2
3.122110834E0,3.930914998E-1,3.906480372E-1,6.551524997E-2
3.131860939E0,2.079994529E-1,4.786125422E-1,1.864664704E-1
3.141611043E0,3.817904741E-2,5.360338688E-1,3.043633699E-1
3.151361251E0,-1.169806048E-1,5.836812854E-1,3.672824502E-1
3.161111355E0,-1.939495653E-1,5.500837564E-1,3.843866587E-1
3.170861459E0,-2.244928032E-1,4.480693042E-1,3.483456373E-1
3.180611564E0,-2.244928032E-1,3.094030023E-1,2.976438701E-1
3.190361668E0,-1.890626550E-1,2.806923687E-1,2.512181401E-1
3.200111876E0,-1.591302752E-1,3.118464649E-1,1.803578287E-1
3.209861980E0,-1.963930279E-1,4.004218578E-1,1.174387559E-1
3.219612084E0,-2.654207349E-1,4.902189970E-1,8.078686893E-2
3.229362189E0,-2.428187430E-1,5.922334194E-1,5.879573524E-2
3.239112293E0,-6.627883017E-2,6.673697829E-1,3.741546720E-2
3.248862501E0,1.805105358E-1,6.123919487E-1,2.458730713E-2
3.258612605E0,3.656025827E-1,4.321868420E-1,4.841103405E-2
3.268362709E0,4.413498044E-1,1.517999023E-1,9.544762224E-2
3.278112814E0,4.499019086E-1,-1.298087686E-1,1.314886510E-1
3.287862918E0,4.572322965E-1,-3.417788446E-1,1.547015011E-1
3.297613126E0,4.651735425E-1,-4.266890585E-1,1.779143661E-1
3.307363230E0,4.511236250E-1,-3.503309488E-1,2.011272311E-1
3.317113334E0,4.046979249E-1,-1.725693047E-1,1.980729103E-1
3.326863439E0,3.430005610E-1,3.084867075E-2,1.828012913E-1
3.336613543E0,2.635881603E-1,2.067777216E-1,1.681405306E-1
3.346363647E0,1.365282834E-1,2.770271897E-1,1.577558219E-1
3.356113855E0,-4.245510325E-2,2.202167511E-1,1.046105921E-1
3.365863959E0,-2.434296161E-1,1.175914705E-1,-1.679878100E-3
3.375614064E0,-4.028653204E-1,3.970621154E-3,-1.476765573E-1
3.385364168E0,-5.335903764E-1,-8.643736690E-2,-3.016144931E-1
3.395114272E0,-6.001746655E-1,-9.987638891E-2,-4.066832364E-1
3.404864376E0,-5.830704570E-1,-8.949168772E-2,-4.476111531E-1
3.414614480E0,-5.256491303E-1,-1.127045527E-1,-4.317286909E-1
3.424364689E0,-4.932733178E-1,-1.695149690E-1,-3.791943192E-1
3.434114793E0,-5.519163013E-1,-3.570504785E-1,-3.156643808E-1
3.443864897E0,-7.009673119E-1,-6.527090073E-1,-2.710712552E-1
3.453615001E0,-8.298597932E-1,-9.489784241E-1,-2.838993967E-1
3.463365105E0,-8.378010392E-1,-1.019227862E0,-3.321577311E-1
3.473115209E0,-6.459894776E-1,-6.960803866E-1,-3.113883138E-1
3.482865418E0,-4.071413875E-1,-1.145371497E-1,-2.503018379E-1
3.492615522E0,-2.519817352E-1,5.873464942E-1,-2.448040545E-1
3.502365626E0,-1.780670881E-1,1.190880895E0,-2.881754637E-1
3.512115730E0,-2.477056682E-1,1.424842119E0,-3.205513060E-1
3.521865834E0,-4.309650958E-1,1.164613724E0,-3.229947388E-1
3.531615939E0,-5.427533388E-1,5.775726438E-1,-2.948949635E-1
3.541366043E0,-4.908298552E-1,-1.566868126E-1,-2.539670467E-1
3.551116251E0,-4.053087831E-1,-7.925970554E-1,-1.983783394E-1
3.560866355E0,-2.868010104E-1,-1.219591498E0,-1.104138121E-1
3.570616459E0,-8.460476995E-2,-1.288008332E0,1.114828233E-2
3.580366564E0,1.291978955E-1,-1.070540547E0,1.125518382E-1
3.590116668E0,2.965748608E-1,-7.040216327E-1,1.498145908E-1
3.599866772E0,3.399462402E-1,-3.130682111E-1,1.137735620E-1
3.609616876E0,2.703076601E-1,1.291978955E-1,2.519817278E-2
3.619366980E0,1.676823795E-1,5.219839811E-1,-3.100138716E-2
3.629117084E0,5.650499091E-2,6.759218574E-1,2.825249545E-2
3.638867293E0,-1.618791744E-2,5.335903764E-1,1.687513888E-1
3.648617397E0,5.192350596E-3,1.872300506E-1,2.780961990E-1
3.658367397E0,7.605266571E-2,-2.739728391E-1,3.153589368E-1
3.668117605E0,2.428187430E-1,-6.533198953E-1,3.171915412E-1
3.677867709E0,4.346303046E-1,-7.925970554E-1,3.043633699E-1
3.687617814E0,5.158752799E-1,-7.333431840E-1,2.787070572E-1
3.697367918E0,3.998109996E-1,-5.476402640E-1,2.903134823E-1
3.707118022E0,1.401934624E-1,-3.045161068E-1,3.605629504E-1
3.716868126E0,-1.701258421E-1,-1.127045527E-1,4.656316638E-1
3.726618230E0,-4.285216331E-1,-1.725693047E-1,5.261073112E-1
3.736368334E0,-5.360338688E-1,-4.358520210E-1,4.473057389E-1
3.746118543E0,-4.462367296E-1,-5.555815101E-1,3.178023994E-1
3.755868647E0,2.351829410E-2,-3.503309488E-1,3.599520624E-1
3.765618751E0,6.911935210E-1,-1.435532235E-2,4.137081802E-1
3.775368855E0,1.094364285E0,3.930914998E-1,1.522580534E-1
3.785118959E0,1.088255644E0,8.787289858E-1,-1.727220118E-1
3.794869064E0,5.555815101E-1,1.031445146E0,-2.667951882E-1
3.804619168E0,-3.741546869E-1,4.773908257E-1,-1.782197952E-1
3.814369272E0,-1.204930782E0,-4.926624298E-1,-1.440113783E-1
3.824119376E0,-1.434615970E0,-1.479209065E0,-1.195767820E-1
3.833869480E0,-1.042440772E0,-1.898873210E0,-3.100138716E-2
3.843619584E0,-1.420260668E-1,-1.399796605E0,-2.855792828E-2
3.853369689E0,8.775072694E-1,-1.316413581E-1,-1.207985133E-1
3.863119793E0,1.652694702E0,1.173165798E0,-2.173151523E-1
3.872869897E0,1.978285551E0,2.013104916E0,-2.209803313E-1
3.882620105E0,1.587942958E0,1.732107043E0,-3.077231348E-1
3.892370209E0,4.621191919E-1,4.743365049E-1,-4.219548404E-1
3.902120314E0,-5.879573226E-1,-7.950404882E-1,-5.178605914E-1
3.911870418E0,-1.013730049E0,-1.455385327E0,-4.909825623E-1
3.921620522E0,-1.000901937E0,-1.578169107E0,-3.394880891E-1
3.931370626E0,-7.021890879E-1,-1.127961874E0,-1.977674663E-1
3.941120730E0,-1.902843714E-1,-3.258963525E-1,-1.317940801E-1
3.950870834E0,4.266890585E-1,5.012145638E-1,-7.788525894E-3
3.960620939E0,9.074396491E-1,7.547234297E-1,1.290451884E-1
3.970371043E0,9.868520498E-1,3.338375986E-1,1.284343153E-1
3.980121147E0,8.707877398E-1,-2.941313982E-1,4.657844082E-2
3.989871251E0,6.637045741E-1,-6.911935210E-1,-3.588830680E-2
3.999621355E0,3.875937164E-1,-6.685914993E-1,-7.925970852E-2
4.009371459E0,4.734202102E-2,-3.649916947E-1,-9.941824526E-2
4.019121564E0,-1.438586563E-1,1.731801629E-1,-1.817322709E-2
4.028871668E0,-6.627883017E-2,7.144063711E-1,9.361502528E-2
4.038621772E0,1.102610901E-1,8.335250020E-1,1.730274558E-1
4.048371876E0,2.196058929E-1,3.356702030E-1,1.999054998E-1
4.058121980E0,4.163043499E-1,-5.091558099E-1,5.818486959E-2
4.067872084E0,7.431169748E-1,-1.322827697E0,-2.735147178E-1
4.077622189E0,1.075427413E0,-2.041204691E0,-6.363683939E-1
4.087372293E0,1.153618097E0,-2.407112598E0,-7.414371371E-1
4.097122397E0,9.153808951E-1,-2.310595989E0,-5.881100893E-1
4.106872501E0,4.309650958E-1,-1.716835499E0,-2.924515009E-1
4.116622605E0,-2.290742844E-2,-8.206968307E-1,7.223475724E-2
4.126372709E0,-1.896735132E-1,-8.032871783E-2,3.190241456E-1
4.136122814E0,-1.059850380E-1,3.075704277E-1,2.964221239E-1
4.145872918E0,4.004218578E-1,3.509418070E-1,2.090684772E-1
4.155623022E0,1.249523878E0,5.803215317E-3,1.430950761E-1
4.165373126E0,1.854279995E0,-5.158752799E-1,6.612611562E-2
4.175123230E0,1.849393129E0,-9.184352160E-1,-4.749473557E-2
4.184873334E0,1.313053846E0,-1.059544921E0,-1.580612659E-1
4.194623439E0,6.539307237E-1,-9.880737662E-1,-5.238165334E-2
4.204373543E0,5.894844979E-2,-8.390227556E-1,2.072358727E-1
4.214123647E0,-1.811214089E-1,-5.451968312E-1,4.992292523E-1
4.223873751E0,-1.689041108E-1,-2.898553312E-1,7.704532146E-1
4.233623855E0,-9.132428467E-2,4.245510325E-2,8.956804872E-1
4.243373959E0,-4.734202102E-2,4.450149834E-1,8.645263910E-1
4.253124064E0,-2.415970266E-1,8.121446967E-1,6.446150541E-1
4.262874168E0,-5.757400393E-1,1.167667985E0,3.428478539E-1
4.272624272E0,-7.907644510E-1,1.443778872E0,3.619373962E-2
4.282374376E0,-8.182533979E-1,1.694844365E0,-9.819651395E-2
4.292124480E0,-6.869174242E-1,1.809686899E0,-2.977965772E-2
4.301874584E0,-6.105593443E-1,1.831678033E0,1.882990748E-1
4.311624689E0,-6.270527244E-1,1.630703568E0,4.057669342E-1
4.321374793E0,-6.930260658E-1,1.097418547E0,5.230529904E-1
4.331124897E0,-7.290670872E-1,3.387245238E-1,4.967857897E-1
4.340875001E0,-8.323032856E-1,-5.635227561E-1,2.671006322E-1
4.350625105E0,-1.101694584E0,-1.283732295E0,7.635809598E-4
4.360375209E0,-1.389411926E0,-1.463326573E0,-1.941022873E-1
4.370125209E0,-1.578169107E0,-9.245438576E-1,-4.237874448E-1
4.379875314E0,-1.473711252E0,1.792888194E-1,-5.361865759E-1
4.389625418E0,-1.204319954E0,1.019227862E0,-4.659371078E-1
4.399375522E0,-8.768963814E-1,1.230587125E0,-3.028362095E-1
4.409125626E0,-3.387245238E-1,1.005788803E0,-9.208786488E-2
4.418875730E0,3.179551065E-1,5.384773016E-1,1.174387559E-1
4.428625834E0,9.648609161E-1,-6.200277433E-2,3.801106215E-1
4.438375939E0,1.401629210E0,-7.412844300E-1,7.221949100E-1
4.448126043E0,1.515250087E0,-1.334434152E0,1.038622856E0
4.457876147E0,1.316719055E0,-1.633757830E0,1.109483123E0
4.467626251E0,9.251546860E-1,-1.580612659E0,9.054543376E-1
4.477376355E0,5.500837564E-1,-1.083979607E0,5.548179150E-1
4.487126459E0,3.375027776E-1,-1.945604384E-1,1.461493969E-1
4.496876564E0,3.491092324E-1,8.640682101E-1,-2.429714650E-1
4.506626668E0,3.576613367E-1,1.473100424E0,-4.195113778E-1
4.516376668E0,1.725693047E-1,1.283121467E0,-2.900080681E-1
4.526126772E0,-1.157588735E-1,5.329795480E-1,7.589995116E-2
4.535876876E0,-2.922987938E-1,-3.711003661E-1,4.534143806E-1
4.545626980E0,-3.051269650E-1,-9.813542962E-1,5.810851455E-1
4.555377084E0,-3.191768527E-1,-1.198822141E0,4.851793647E-1
4.565127189E0,-3.869828284E-1,-1.151785493E0,2.579376400E-1
4.574877293E0,-4.450149834E-1,-8.182533979E-1,-2.244928107E-2
4.584627397E0,-4.957167804E-1,-4.150826037E-1,-2.545779049E-1
4.594377501E0,-5.464185476E-1,-2.535088919E-2,-4.201222658E-1
4.604127605E0,-6.459894776E-1,1.982256174E-1,-5.288561583E-1
4.613877709E0,-8.665117025E-1,6.627883017E-2,-6.357575059E-1
4.623627709E0,-1.096196890E0,-2.715294063E-1,-7.279980779E-1
4.633377814E0,-1.149952888E0,-5.458076596E-1,-6.889027357E-1
4.643127918E0,-9.129374027E-1,-7.150171995E-1,-5.050324798E-1
4.652878022E0,-5.629118681E-1,-7.589994669E-1,-2.893971801E-1
4.662628126E0,-4.395172000E-1,-5.085449219E-1,-1.996000707E-1
4.672378230E0,-5.830704570E-1,-6.444623321E-2,-1.824958473E-1
4.682128334E0,-5.549706817E-1,4.419606626E-1,-1.482874304E-1
4.691878439E0,-3.778198659E-1,7.480039001E-1,-1.715002805E-1
4.701628543E0,-1.542433500E-1,9.837977290E-1,-1.996000707E-1
4.711378543E0,-1.493564397E-1,9.660826325E-1,-1.586721241E-1
4.721128647E0,-2.696968019E-1,7.009673119E-1,-6.032289565E-2
4.730878751E0,-3.136790693E-1,3.203985691E-1,-9.819651395E-2
4.740628855E0,-5.268708467E-1,-6.933315098E-2,-2.160934210E-1
4.750378959E0,-7.993165851E-1,-3.185659945E-1,-3.052796721E-1
4.760129064E0,-9.245438576E-1,-3.515526950E-1,-3.382663727E-1
4.769879168E0,-9.636391997E-1,-2.031125426E-1,-2.716821134E-1
4.779629272E0,-8.029817343E-1,2.696968019E-1,-2.000582218E-2
4.789379272E0,-5.458076596E-1,8.616247773E-1,2.872591615E-1
4.799129376E0,-3.680460155E-1,1.382081509E0,4.283689260E-1
4.808879480E0,-2.617555559E-1,1.784641504E0,4.387536347E-1
4.818629584E0,-1.591302752E-1,1.712559462E0,2.658788860E-1
4.828379689E0,-3.359756200E-3,1.233030558E0,-3.344484791E-2
4.838129793E0,1.218675226E-1,6.154462695E-1,-3.046688139E-1
4.847879897E0,1.646280587E-1,2.535088919E-2,-3.834703565E-1
4.857629897E0,8.643736690E-2,-4.456258714E-1,-3.034470677E-1
4.867380001E0,-1.145371497E-1,-6.484329700E-1,-1.678351015E-1
4.877130105E0,-2.880227566E-1,-5.574141145E-1,2.580903657E-2
4.886880209E0,-3.258963525E-1,-9.376774728E-2,2.499964088E-1
4.896630314E0,-3.607156575E-1,5.787943602E-1,3.281871080E-1
4.906380418E0,-4.676169753E-1,1.150563836E0,2.121227980E-1
4.916130522E0,-5.677987933E-1,1.342986226E0,-4.260781780E-2
4.925880522E0,-5.354229808E-1,1.157283306E0,-3.297142684E-1
4.935630626E0,-3.607156575E-1,6.667588949E-1,-5.575668216E-1
4.945380730E0,-1.114828214E-1,2.229656465E-2,-6.553052068E-1
4.955130834E0,1.603520066E-1,-5.726857185E-1,-6.345357895E-1
4.964880939E0,3.839285076E-1,-1.003956318E0,-5.539016128E-1
4.974630939E0,5.262600183E-1,-1.130405307E0,-3.908007443E-1
4.984381043E0,4.999928176E-1,-9.502001405E-1,-2.112064958E-1
4.994131147E0,2.012799382E-1,-4.828886092E-1,-8.292489499E-2
5.003881251E0,-3.497200906E-1,8.888082206E-2,-4.688387364E-2
5.013631355E0,-9.618065953E-1,6.276635528E-1,-1.543960720E-1
5.023381459E0,-1.347262263E0,8.707877398E-1,-3.596466482E-1
5.033131459E0,-1.417511702E0,7.131846547E-1,-5.441278219E-1
5.042881564E0,-1.264184713E0,2.336557806E-1,-6.736311316E-1
5.052631668E0,-9.770781994E-1,-3.045161068E-1,-7.292198539E-1
5.062381772E0,-6.575959325E-1,-6.985238791E-1,-6.766854525E-1
5.072131876E0,-4.529562294E-1,-9.068287611E-1,-5.398517251E-1
5.081881876E0,-4.315759540E-1,-8.836159110E-1,-3.541488647E-1
5.091631980E0,-5.238165259E-1,-5.653553605E-1,-1.287397593E-1
5.101382084E0,-6.185005903E-1,-2.168569900E-2,5.574141070E-2
5.111132189E0,-8.402445316E-1,3.937023580E-1,2.947422490E-2
5.120882293E0,-9.954041839E-1,6.582068205E-1,-9.819651395E-2
5.130632293E0,-9.471458197E-1,8.353576064E-1,-2.325867712E-1
5.140382397E0,-7.754928470E-1,8.518509269E-1,-2.936732471E-1
5.150132501E0,-4.963276386E-1,6.734784245E-1,-2.283107042E-1
5.159882605E0,-1.560759544E-1,4.541779757E-1,-1.348484010E-1
5.169632709E0,1.719584316E-1,2.513708472E-1,-1.023198478E-2
5.179382709E0,4.670061171E-1,1.579085439E-1,1.583666950E-1
5.189132814E0,6.466003656E-1,2.733619809E-1,3.575085998E-1
5.198882918E0,6.905826330E-1,4.272999167E-1,4.912880063E-1
5.208633022E0,6.233875155E-1,5.409207344E-1,5.138899684E-1
5.218383126E0,4.584540129E-1,6.001746655E-1,4.570795596E-1
5.228133126E0,2.544251680E-1,5.824595690E-1,3.465130329E-1
5.237883230E0,6.139190868E-2,5.665770769E-1,2.237292230E-1
5.247633334E0,-3.451386094E-2,6.136136651E-1,1.644753367E-1
5.257383439E0,9.560033679E-2,5.574141145E-1,1.724165827E-1
5.267133543E0,4.065304995E-1,3.136790693E-1,1.956294477E-1
5.276883543E0,7.113520503E-1,-2.596175298E-2,2.139553875E-1
5.286633647E0,9.355394244E-1,-3.619373739E-1,2.011272311E-1
5.296383751E0,1.157894135E0,-6.313287616E-1,1.302669197E-1
5.306133855E0,1.426674724E0,-6.545416117E-1,-1.145371422E-2
5.315883855E0,1.603214622E0,-4.499019086E-1,-1.519526094E-1
5.325633959E0,1.593440771E0,-1.151480079E-1,-2.026543915E-1
5.335384064E0,1.427285552E0,2.941313982E-1,-9.941824526E-2
5.345134168E0,1.204319954E0,6.850848794E-1,8.811724186E-2
5.354884168E0,1.010064960E0,8.952223063E-1,2.713766694E-1
5.364634272E0,8.927788734E-1,9.337068200E-1,4.039343297E-1
5.374384376E0,8.689551353E-1,7.675516009E-1,4.167625010E-1
5.384134480E0,8.854485154E-1,3.833176494E-1,3.281871080E-1
5.393884480E0,7.907644510E-1,-1.255327165E-1,2.176205814E-1
5.403634584E0,5.287034512E-1,-6.081159115E-1,1.290451884E-1
5.413384689E0,1.261435747E-1,-9.440914989E-1,1.027780026E-1
5.423134793E0,-2.941313982E-1,-1.046716809E0,1.638644785E-1
5.432884793E0,-6.038398147E-1,-8.799507022E-1,3.092502952E-1
5.442634897E0,-7.431169748E-1,-4.682278633E-1,4.418079555E-1
5.452385001E0,-6.533198953E-1,1.010981202E-1,4.723511934E-1
5.462135001E0,-3.882045746E-1,5.555815101E-1,3.556760252E-1
5.471885105E0,-1.090393662E-1,7.027999163E-1,1.223256737E-1
5.481635209E0,1.377500147E-1,5.934551358E-1,-1.128572673E-1
5.491385314E0,2.580903769E-1,2.794706225E-1,-3.003927469E-1
5.501135314E0,3.368919194E-1,-9.621120244E-2,-3.908007443E-1
5.510885418E0,4.492910504E-1,-3.937023580E-1,-3.932442069E-1
5.520635522E0,5.647444725E-1,-5.458076596E-1,-3.504836559E-1
5.530385522E0,6.404917240E-1,-5.274817348E-1,-2.619082630E-1
5.540135626E0,6.270527244E-1,-3.900371492E-1,-1.226311028E-1
5.549885730E0,5.409207344E-1,-1.817322671E-1,3.924806044E-2
5.559635834E0,4.327977002E-1,-1.679878123E-2,1.522580534E-1
5.569385834E0,3.307832778E-1,2.962694131E-2,1.730274558E-1
5.579135939E0,2.171624303E-1,-5.283980444E-2,1.113301069E-1
5.588886043E0,9.865466505E-2,-1.689041108E-1,1.053741761E-2
5.598636043E0,3.359756200E-3,-2.739728391E-1,-9.208786488E-2
5.608386147E0,-5.894844979E-2,-2.965748608E-1,-1.690568328E-1
5.618136147E0,-7.910698652E-2,-2.251036763E-1,-1.879936308E-1
5.627886251E0,-1.230892539E-1,-1.096502244E-1,-1.751654744E-1
5.637636355E0,-1.878409237E-1,1.527161920E-3,-1.324049383E-1
5.647386459E0,-2.232710719E-1,5.406153202E-2,-5.787943676E-2
5.657136564E0,-2.391535640E-1,1.078176349E-1,3.680460155E-2
5.666886564E0,-2.977965772E-1,1.291978955E-1,9.728021920E-2
5.676636668E0,-3.784307241E-1,1.078176349E-1,1.168278903E-1
5.686386668E0,-4.395172000E-1,9.010255337E-2,1.149952933E-1
5.696136772E0,-4.578431547E-1,7.910698652E-2,1.009454057E-1
5.705886772E0,-4.046979249E-1,5.833758786E-2,7.467821985E-2
5.715636980E0,-2.415970266E-1,5.833758786E-2,4.230238497E-2
5.725386980E0,7.635809947E-3,9.926552325E-2,2.153298259E-2
5.735137084E0,2.641990185E-1,1.127045527E-1,6.261364091E-3
5.744887189E0,4.682278633E-1,9.926552325E-2,6.261364091E-3
5.754637189E0,5.714640021E-1,2.779434808E-2,9.315688163E-3
5.764387293E0,5.244274139E-1,-9.498947114E-2,-1.679878100E-3
5.774137397E0,3.478874862E-1,-1.878409237E-1,-2.489273995E-2
5.783887397E0,1.285870373E-1,-2.360992432E-1,-4.382954910E-2
5.793637501E0,-4.428769648E-2,-2.635881603E-1,-4.321868345E-2
5.803387605E0,-1.053741723E-1,-3.081812859E-1,-2.367101051E-2
5.813137605E0,-7.483093441E-2,-3.570504785E-1,9.926552884E-3
5.822887709E0,1.496618707E-2,-3.265072107E-1,4.046979174E-2
5.832637814E0,1.261435747E-1,-2.134972364E-1,8.811724186E-2
5.842387814E0,1.456912458E-1,-1.072067693E-1,1.339320987E-1
5.852137918E0,4.550942779E-2,3.970621154E-3,1.369864196E-1
5.861887918E0,-1.127045527E-1,9.865466505E-2,1.027780026E-1
5.871638022E0,-2.446513474E-1,1.371391416E-1,4.291325063E-2
5.881388126E0,-3.594939113E-1,1.713475734E-1,-4.016435891E-2
5.891138126E0,-4.425715208E-1,1.585194170E-1,-1.085812151E-1
5.900888230E0,-4.804451466E-1,1.395826042E-1,-1.519526094E-1
5.910638334E0,-4.694495797E-1,1.029307172E-1,-1.763872057E-1
5.920388334E0,-4.193586707E-1,9.376774728E-2,-1.678351015E-1
5.930138439E0,-3.191768527E-1,8.032871783E-2,-1.262962967E-1
5.939888439E0,-2.269362658E-1,5.345066637E-2,-8.231402934E-2
5.949638543E0,-1.682932526E-1,5.039634556E-2,-6.765327603E-2
5.959388647E0,-8.277218044E-2,3.817904741E-2,-8.536835015E-2
5.969138647E0,1.435532235E-2,4.367683083E-2,-1.195767820E-1
5.978888647E0,6.139190868E-2,3.695731983E-2,-1.464548260E-1
5.988638855E0,9.071341902E-2,6.994401664E-2,-1.476765573E-1
5.998388855E0,1.621845961E-1,1.206457913E-1,-8.903354406E-2
6.008138959E0,2.251036763E-1,1.670715213E-1,5.451968312E-2
6.017888959E0,2.257145345E-1,1.939495653E-1,2.438877672E-1
6.027639064E0,2.342666388E-1,1.530216336E-1,4.039343297E-1
6.037389168E0,3.087921441E-1,8.949168772E-2,5.145008564E-1
6.047139168E0,3.802633286E-1,9.621120244E-2,5.358811021E-1
6.056889272E0,3.442223072E-1,8.643736690E-2,4.491383433E-1
6.066639272E0,2.067777216E-1,-1.007926930E-2,2.952004075E-1
6.076389376E0,2.779434808E-2,-1.860083193E-1,1.504254490E-1
6.086139480E0,1.130099874E-2,-3.527744114E-1,8.704823442E-3
6.095889480E0,2.776380479E-1,-4.639517963E-1,-7.131846249E-2
6.105639584E0,7.718276381E-1,-5.659661889E-1,4.046979174E-2
6.115389584E0,1.201876402E0,-6.209440231E-1,2.457203567E-1
6.125139689E0,1.335044980E0,-4.712821841E-1,4.754055142E-1
6.134889689E0,1.038775563E0,-2.043342739E-1,6.305651665E-1
6.144639793E0,4.089739621E-1,-1.863137633E-2,7.050906420E-1
6.154389897E0,-3.601047993E-1,6.017018110E-2,6.690496206E-1
6.164139897E0,-9.795216918E-1,8.093958348E-2,4.399753511E-1
6.173890001E0,-1.297171354E0,1.255327165E-1,7.467821985E-2
6.183640001E0,-1.236084938E0,2.745837271E-1,-1.965457499E-1
6.193390001E0,-8.408553600E-1,5.073232055E-1,-2.942841053E-1
6.203140105E0,-2.061668634E-1,6.203331947E-1,-2.124282271E-1
6.212890209E0,4.969384968E-1,5.696313977E-1,-7.788525894E-3
6.222640314E0,9.899063706E-1,3.087921441E-1,1.950185746E-1
6.232390314E0,1.019838691E0,-9.498947114E-2,2.848156989E-1
6.242140418E0,6.820304990E-1,-4.211912751E-1,3.208567202E-1
6.251890418E0,3.350593448E-1,-4.596757591E-1,2.585485280E-1
6.261640522E0,1.744018942E-1,-2.025016695E-1,8.872810751E-2
6.271390522E0,2.489273995E-1,3.216203153E-1,-1.287397593E-1
6.281140626E0,4.651735425E-1,8.848376274E-1,-2.845102847E-1
6.290890626E0,8.903354406E-1,1.209817648E0,-2.808450758E-1
6.300640730E0,1.472489595E0,1.226921916E0,-4.734201822E-3
6.310390834E0,1.795637012E0,8.842267394E-1,3.758345544E-1
6.320140834E0,1.545182467E0,4.132500291E-1,6.348412037E-1
6.329890939E0,8.414662480E-1,5.192350596E-3,7.380773425E-1
6.339640939E0,-5.100720748E-2,-3.478874862E-1,6.482802629E-1
6.349391043E0,-7.956513762E-1,-4.963276386E-1,4.668534100E-1
6.359141043E0,-8.854485154E-1,-2.861901522E-1,2.426660359E-1
6.368891147E0,-1.762344837E-1,2.977965772E-1,-2.000582218E-2
6.378641147E0,9.282090068E-1,1.004567146E0,-2.197586000E-1
6.388391251E0,1.773645878E0,1.423620343E0,-2.393062711E-1
6.398141251E0,1.970344305E0,1.340542793E0,-3.405570984E-2
6.407891355E0,1.378416419E0,7.101303339E-1,6.246092543E-2
6.417641355E0,4.193586707E-1,-6.505709887E-2,-1.128572673E-1
6.427391459E0,-6.380482912E-1,-6.789761782E-1,-4.897608459E-1
6.437141459E0,-1.566562772E0,-1.037553787E0,-8.410080671E-1
6.446891564E0,-1.930638194E0,-1.149342060E0,-9.595158696E-1
6.456641564E0,-1.558621526E0,-8.206968307E-1,-8.245147467E-1
6.466391668E0,-6.111702323E-1,-4.468475878E-1,-6.113229394E-1
6.476141668E0,5.739074349E-1,-1.902843714E-1,-3.791943192E-1
6.485891772E0,1.635590434E0,-2.474002354E-2,-5.054906011E-2
6.495641772E0,2.206138134E0,-6.078104675E-2,2.780961990E-1
6.505391876E0,1.980118155E0,-1.591302752E-1,3.758345544E-1
6.515141876E0,1.043662429E0,-1.493564397E-1,2.750418782E-1
6.524891980E0,-1.627954692E-1,-1.750127524E-1,1.363755614E-1
6.534641980E0,-9.508110285E-1,-3.207040206E-2,6.872228812E-3
6.544391980E0,-1.267238975E0,2.800815105E-1,-2.087630332E-1
6.554142084E0,-1.111468434E0,5.702422857E-1,-3.284925222E-1
6.563892084E0,-5.500837564E-1,5.873464942E-1,-2.374736816E-1
6.573642189E0,5.955931544E-2,4.224129915E-1,-1.372918636E-1
6.583392189E0,1.939495653E-1,2.037234008E-1,-1.049160287E-1
6.593142293E0,-3.680460155E-1,6.627883017E-2,8.139773458E-2
6.602892293E0,-1.159115911E0,1.194240674E-1,6.110175252E-1
6.612642397E0,-1.903149247E0,2.666424811E-1,1.025794625E0
6.622392293E0,-1.967290044E0,2.648098767E-1,1.202945471E0
6.632142501E0,-1.102916360E0,3.882045746E-1,1.235321283E0
6.641892501E0,-4.034761786E-1,9.764673710E-1,9.805907011E-1
6.651642605E0,-2.177732885E-1,1.727831006E0,2.713766694E-1
6.661392605E0,-2.959639728E-1,2.282496214E0,-3.999637067E-1
6.671142709E0,-3.313941360E-1,2.315482855E0,-6.998983026E-1
6.680892709E0,-1.823431402E-1,1.392466307E0,-5.807796717E-1
6.690642709E0,2.599229515E-1,9.437860548E-2,-1.849393100E-1
6.700392814E0,4.456258714E-1,-4.053087831E-1,2.047924101E-1
6.710142814E0,1.750127524E-1,-1.530216336E-1,4.583013058E-1
6.719892918E0,-1.853974611E-1,9.621120244E-2,4.662425518E-1
6.729642918E0,-3.356702030E-1,-1.365282834E-1,2.567159235E-1
6.739393022E0,-3.161225319E-1,-6.887500286E-1,-9.819651395E-2
6.749143022E0,-2.244928032E-1,-1.495702386E0,-3.675878942E-1
6.758893022E0,-2.018908113E-1,-2.163988590E0,-5.294670463E-1
6.768643126E0,-4.114174247E-1,-2.463312149E0,-5.343539715E-1
6.778393126E0,-5.409207344E-1,-2.464534044E0,-1.226311028E-1
6.788143230E0,-3.814850450E-1,-2.101069450E0,5.047270060E-1
6.797893230E0,-3.124573231E-1,-1.283121467E0,8.254310489E-1
6.807643334E0,-2.587012351E-1,-6.979129910E-1,8.504765034E-1
6.817393334E0,1.285870373E-1,-7.797688842E-1,6.965385675E-1
6.827143334E0,5.244274139E-1,-8.897245526E-1,5.102248192E-1
6.836893439E0,6.649262905E-1,-7.779362798E-1,4.326449931E-1
6.846643439E0,7.632755637E-1,-4.523453712E-1,4.216494262E-1
6.856393543E0,7.919861674E-1,-5.467239767E-2,3.605629504E-1
6.866143543E0,6.893609166E-1,2.507599890E-1,2.322813272E-1
6.875893543E0,5.415316224E-1,4.517345130E-1,1.198822111E-1
6.885643647E0,4.279107749E-1,4.065304995E-1,-1.018617004E-1
6.895393647E0,3.558287323E-1,1.695149690E-1,-4.610501826E-1
6.905143751E0,2.153298408E-1,-1.915061027E-1,-8.391754627E-1
6.914893751E0,1.102610901E-1,-5.262600183E-1,-1.067638874E0
6.924643751E0,5.833758786E-2,-6.215549111E-1,-1.027321815E0
6.934393855E0,-8.826996386E-2,-4.657844007E-1,-6.754637361E-1
6.944143855E0,-2.574795187E-1,-3.161225319E-1,-2.179260105E-1
6.953893855E0,-2.238819450E-1,-1.670715213E-1,1.473711282E-1
6.963643959E0,-6.414080039E-3,2.290742844E-2,2.982547283E-1
6.973393959E0,2.690859437E-1,4.856374860E-2,2.512181401E-1
6.983143959E0,5.219839811E-1,5.161807314E-2,1.021671370E-1
6.992894064E0,5.781835318E-1,3.054323897E-4,-4.871646687E-2
7.002644064E0,4.908298552E-1,-1.511890292E-1,-1.366809905E-1
7.012394168E0,3.222311735E-1,-3.014617562E-1,-1.140789986E-1
7.022144168E0,5.711585656E-2,-3.820959330E-1,5.390881747E-2
7.031894168E0,-2.880227566E-1,-2.568686306E-1,2.408334464E-1
7.041644272E0,-7.443387508E-1,2.290742844E-2,3.312414289E-1
7.051394272E0,-1.115744472E0,1.414151937E-1,2.383899838E-1
7.061144272E0,-1.211650252E0,6.139190868E-2,-3.222311661E-2
7.070894376E0,-1.050992846E0,-1.041524485E-1,-3.126100600E-1
7.080644376E0,-6.466003656E-1,-2.519817352E-1,-5.508472919E-1
7.090394376E0,-6.017018110E-2,-4.132500291E-1,-6.534726024E-1
7.100144480E0,5.928442478E-1,-7.052434087E-1,-5.490147471E-1
7.109894480E0,1.183550477E0,-9.251546860E-1,-2.142608166E-1
7.119644480E0,1.490815520E0,-8.432988524E-1,1.186604798E-1
7.129394584E0,1.331379771E0,-5.885682106E-1,2.823722363E-1
7.139144584E0,7.742711306E-1,-3.448331654E-1,3.782780170E-1
7.148894584E0,2.657261863E-2,-1.463021189E-1,3.630063832E-1
7.158644689E0,-6.374374032E-1,1.802051067E-2,1.021671370E-1
7.168394689E0,-1.038164735E0,1.371391416E-1,-1.934914142E-1
7.178144689E0,-1.204930782E0,2.098320574E-1,-2.887863219E-1
7.187894793E0,-1.123074889E0,2.733619809E-1,-2.777907550E-1
7.197644793E0,-8.646790981E-1,1.945604384E-1,-2.338084877E-1
7.207394793E0,-4.896081090E-1,5.955931544E-2,-2.611446939E-2
7.217144793E0,-1.542433500E-1,3.084867075E-2,2.725984156E-1
7.226894897E0,8.888082206E-2,3.756818548E-2,4.240928590E-1
7.236644897E0,2.336557806E-1,9.865466505E-2,2.915352285E-1
7.246394897E0,1.603520066E-1,1.432477981E-1,2.397644334E-2
7.256145001E0,-4.062250629E-2,1.469129771E-1,-1.916588247E-1
7.265895001E0,-2.183841616E-1,5.894844979E-2,-3.443750143E-1
7.275645001E0,-3.912588954E-1,-5.772672221E-2,-4.305069447E-1
7.285395001E0,-5.445859432E-1,-5.589412898E-2,-4.262309074E-1
7.295145105E0,-5.965094566E-1,2.748891478E-3,-3.480401933E-1
7.304895105E0,-4.163043499E-1,8.704823256E-2,-2.038761228E-1
7.314645105E0,-1.114828214E-1,1.603520066E-1,-9.010255337E-3
7.324395209E0,1.866191924E-1,2.470948100E-1,1.375972927E-1
7.334145209E0,3.032943606E-1,3.417788446E-1,1.314886510E-1
7.343895209E0,2.189950198E-1,3.906480372E-1,1.359174121E-2
7.353645209E0,8.888082206E-2,3.808741868E-1,-9.758564830E-2
7.363395314E0,4.306596518E-2,3.155116439E-1,-1.531743407E-1
7.373145209E0,9.560033679E-2,1.401934624E-1,-1.941022873E-1
7.382895314E0,1.603520066E-1,-3.756818548E-2,-2.441931963E-1
7.392645314E0,1.707367003E-1,-2.391535640E-1,-2.527453005E-1
7.402395418E0,8.643736690E-2,-4.621191919E-1,-2.374736816E-1
7.412145418E0,-1.395826042E-1,-5.635227561E-1,-2.863428593E-1
7.421895418E0,-3.711003661E-1,-5.262600183E-1,-3.956876695E-1
7.431645418E0,-5.763509274E-1,-4.590648711E-1,-4.353938699E-1
7.441395522E0,-7.406735420E-1,-3.326158822E-1,-4.054614902E-1
7.451145522E0,-6.991347671E-1,-7.055488229E-2,-3.651444316E-1
7.460895522E0,-4.236347377E-1,2.452622056E-1,-3.095557392E-1
7.470645522E0,-1.010981202E-1,5.720748901E-1,-2.270889878E-1
7.480395626E0,6.261363626E-2,8.555161357E-1,-1.501200199E-1
7.490145626E0,5.650499091E-2,1.028390884E0,-1.153007299E-1
7.499895626E0,-4.062250629E-2,9.312633276E-1,-1.727220118E-1
7.509645626E0,-2.281579971E-1,5.568032265E-1,-2.759581506E-1
7.519395626E0,-4.266890585E-1,1.805105358E-1,-3.181078434E-1
7.529145730E0,-5.152644515E-1,-4.245510325E-2,-2.643517256E-1
7.538895730E0,-5.012145638E-1,-5.528326333E-2,-1.232419685E-1
7.548645730E0,-4.230238497E-1,4.489856213E-2,5.635227636E-2
7.558395730E0,-3.497200906E-1,1.401934624E-1,2.157879770E-1
7.568145834E0,-3.717112243E-1,2.886336148E-1,3.031416535E-1
7.577895834E0,-5.097666383E-1,4.822777510E-1,2.689332068E-1
7.587645834E0,-7.217367291E-1,6.484329700E-1,1.302669197E-1
7.597395834E0,-8.982766867E-1,6.679806113E-1,-1.201876476E-1
7.607145834E0,-9.819651246E-1,4.511236250E-1,-4.140135944E-1
7.616895939E0,-1.059544921E0,1.902843714E-1,-6.369792223E-1
7.626645939E0,-1.109635830E0,-8.857538924E-3,-6.797397733E-1
7.636395939E0,-8.781180978E-1,-1.090393662E-1,-4.549415410E-1
7.646145939E0,-3.802633286E-1,8.032871783E-2,-1.328630932E-2
7.655895939E0,1.805105358E-1,3.515526950E-1,5.053378940E-1
7.665646043E0,6.136136651E-1,5.684096813E-1,8.541416526E-1
7.675396043E0,8.127555847E-1,5.732966065E-1,8.229875565E-1
7.685146043E0,8.494074941E-1,2.189950198E-1,3.776671588E-1
7.694896043E0,7.565560341E-1,-1.945604384E-1,-2.044869810E-1
7.704646043E0,3.118464649E-1,-2.910770774E-1,-6.217076182E-1
7.714396043E0,-4.346303046E-1,-6.994401664E-2,-8.593340516E-1
7.724146043E0,-1.112079382E0,3.888154328E-1,-1.002276421E0
7.733896147E0,-1.419344306E0,8.695660233E-1,-9.668462276E-1
7.743646147E0,-1.215926290E0,1.096196890E0,-6.394227147E-1
7.753396147E0,-5.372555852E-1,1.059544921E0,-1.036942974E-1
7.763146147E0,3.118464649E-1,8.005383015E-1,3.807214797E-1
7.772896147E0,9.642500281E-1,3.765981495E-1,6.049088240E-1
7.782646147E0,1.261130333E0,-1.261435747E-1,5.798633695E-1
7.792396251E0,1.189048290E0,-4.920515716E-1,3.929387629E-1
7.802146251E0,7.211259007E-1,-6.056724191E-1,9.361502528E-2
7.811896251E0,2.779434808E-2,-4.859429300E-1,-2.008218020E-1
7.821646251E0,-6.013963819E-1,-1.798996776E-1,-3.431532979E-1
7.831396251E0,-9.214895368E-1,2.177732885E-1,-3.095557392E-1
7.841146251E0,-9.575305581E-1,4.517345130E-1,-1.385135949E-1
7.850896251E0,-6.979129910E-1,4.260781705E-1,1.614210159E-1
7.860646251E0,-1.505781710E-1,1.640172005E-1,3.709476292E-1
7.870396355E0,4.083631039E-1,-2.269362658E-1,4.363101721E-1
7.880146355E0,6.154462695E-1,-4.731147587E-1,4.271472096E-1
7.889896355E0,4.889972508E-1,-4.474584460E-1,3.416261375E-1
7.899646355E0,2.336557806E-1,-3.674351573E-1,2.078467458E-1
7.909396355E0,1.924224012E-2,-3.454440236E-1,6.185005978E-2
7.919146355E0,-1.915061027E-1,-3.222311735E-1,-3.405570984E-2
7.928896355E0,-4.230238497E-1,-2.470948100E-1,-8.170316368E-2
7.938646355E0,-5.726857185E-1,-1.249218509E-1,-9.880737960E-2
7.948396355E0,-5.580250025E-1,-4.001164436E-2,-9.697478265E-2
7.958146459E0,-3.998109996E-1,1.191186346E-2,-6.215549260E-2
7.967896459E0,-1.878409237E-1,9.468403645E-3,1.985310577E-3
7.977646459E0,4.795288667E-2,-8.704823256E-2,6.734783947E-2
7.987396459E0,2.489273995E-1,-2.281579971E-1,1.162170246E-1
7.997146459E0,3.570504785E-1,-3.484983444E-1,1.204930767E-1
8.006896459E0,3.338375986E-1,-3.985892832E-1,8.384118974E-2
8.016646459E0,2.196058929E-1,-4.303542376E-1,5.146535859E-2
8.026396459E0,8.888082206E-2,-4.230238497E-1,1.237001177E-2
8.036146459E0,-3.756818548E-2,-3.478874862E-1,-3.344484791E-2
8.045896459E0,-1.493564397E-1,-2.189950198E-1,-5.054906011E-2
8.055646459E0,-2.373209596E-1,-1.010981202E-1,-4.260781780E-2
8.065396459E0,-3.032943606E-1,-2.901607752E-2,-1.511890348E-2
8.075146564E0,-3.350593448E-1,-1.740964688E-2,4.902189970E-2
8.084896564E0,-3.155116439E-1,-3.756818548E-2,1.333212405E-1
8.094646564E0,-2.012799382E-1,-8.399390429E-2,1.601992846E-1
8.104396564E0,-3.573558852E-2,-7.544180006E-2,1.204930767E-1
8.114146564E0,9.193515033E-2,-9.010255337E-2,1.125518382E-1
8.123896564E0,1.273653060E-1,-1.059850380E-1,9.789107740E-2
8.133646564E0,8.704823256E-2,-9.865466505E-2,5.696314201E-2
8.143396564E0,-2.748891478E-3,-8.032871783E-2,1.664606482E-2
8.153146564E0,-1.010981202E-1,-9.193515033E-2,-2.901607659E-3
8.162896564E0,-2.000582218E-1,-1.157588735E-1,-1.679878100E-3
8.172646564E0,-3.008508980E-1,-1.139262840E-1,1.542433538E-2
8.182396564E0,-3.918697536E-1,-8.277218044E-2,5.329795182E-2
8.192146564E0,-4.401280880E-1,-2.474002354E-2,6.062832847E-2
8.201896564E0,-4.254673123E-1,3.390299529E-2,6.062832847E-2
8.211646564E0,-3.619373739E-1,5.894844979E-2,6.429351866E-2
8.221396564E0,-2.397644222E-1,7.360920310E-2,7.284562290E-2
8.231146564E0,-1.010981202E-1,9.071341902E-2,8.078686893E-2
8.240896564E0,1.374445762E-2,1.084285006E-1,8.261945844E-2
8.250646564E0,8.765909821E-2,1.017089859E-1,7.223475724E-2
8.260396564E0,1.127045527E-1,8.888082206E-2,3.680460155E-2
8.270146564E0,9.987638891E-2,7.177661359E-2,-1.572976820E-2
8.279896564E0,6.811141968E-2,5.650499091E-2,-6.276635826E-2
8.289646564E0,2.962694131E-2,4.245510325E-2,-9.147699922E-2
8.299396564E0,7.024944760E-3,2.168569900E-2,-9.636391699E-2
8.309146564E0,-3.054323897E-4,-1.435532235E-2,-8.231402934E-2
8.318896564E0,-1.435532235E-2,-3.512472659E-2,-4.993819445E-2
8.328646564E0,-3.695731983E-2,-3.390299529E-2,1.053741761E-2
8.338396564E0,-4.917461425E-2,-2.474002354E-2,8.200860023E-2
8.348146564E0,-4.978547990E-2,-2.229656465E-2,1.479819864E-1
8.357896564E0,-2.351829410E-2,-1.252272818E-2,1.760817766E-1
8.367646564E0,2.962694131E-2,1.191186346E-2,1.547015011E-1
8.377396564E0,7.544180006E-2,2.840521187E-2,9.728021920E-2
8.387146564E0,9.621120244E-2,3.451386094E-2,3.863719851E-2
8.396896564E0,9.987638891E-2,3.817904741E-2,-4.734201822E-3
8.406646564E0,8.949168772E-2,2.657261863E-2,-5.238165334E-2
8.416396564E0,8.277218044E-2,5.803215317E-3,-8.903354406E-2
8.426146564E0,6.688969582E-2,1.069013402E-2,-8.964440972E-2
8.435896564E0,4.367683083E-2,5.039634556E-2,-5.971203372E-2
8.445646564E0,3.756818548E-2,8.765909821E-2,-2.122755162E-2
8.455396564E0,4.550942779E-2,1.175914705E-1,2.703076601E-2
8.465146564E0,6.139190868E-2,1.383608729E-1,9.300415963E-2
8.474896564E0,6.811141968E-2,1.346956789E-1,1.522580534E-1
8.484646564E0,6.933315098E-2,1.395826042E-1,1.840230078E-1
8.494396564E0,8.277218044E-2,1.377500147E-1,1.742491722E-1
8.504146564E0,1.145371497E-1,1.182023361E-1,1.272125840E-1
8.513896564E0,1.182023361E-1,1.053741723E-1,8.261945844E-2
8.523646459E0,6.444623321E-2,8.338304609E-2,4.718930274E-2
8.533396459E0,3.970621154E-3,3.817904741E-2,1.420260593E-2
8.543146459E0,-1.740964688E-2,2.229656465E-2,-5.345067009E-3
8.552896459E0,-2.046396956E-2,3.512472659E-2,-2.290742937E-3
8.562646459E0,-5.192350596E-3,5.406153202E-2,1.847865991E-2
8.572396459E0,3.634645417E-2,9.132428467E-2,4.230238497E-2
8.582146459E0,8.704823256E-2,1.279761642E-1,6.062832847E-2
8.591896459E0,1.432477981E-1,1.346956789E-1,6.368265301E-2
8.601646459E0,1.878409237E-1,1.047633067E-1,4.841103405E-2
8.611396459E0,2.159406990E-1,7.055488229E-2,1.481347065E-2
8.621146459E0,2.324340492E-1,3.756818548E-2,-9.621120058E-3
8.630896459E0,2.299905866E-1,3.329212964E-2,-1.267544460E-2
8.640646459E0,2.134972364E-1,5.955931544E-2,5.039634649E-3
8.650396355E0,1.976147592E-1,1.102610901E-1,3.252854943E-2
8.660146355E0,1.933387071E-1,2.012799382E-1,4.474584386E-2
8.669896355E0,2.110537887E-1,2.904661894E-1,2.886336111E-2
8.679646355E0,2.507599890E-1,3.472766280E-1,-3.100138716E-2
8.689396355E0,3.265072107E-1,3.295615613E-1,-1.146898642E-1
8.699146355E0,3.784307241E-1,2.513708472E-1,-1.550069451E-1
8.708896355E0,3.625482321E-1,1.487455666E-1,-1.507308781E-1
8.718646355E0,3.118464649E-1,4.367683083E-2,-1.177441850E-1
8.728396355E0,2.306014597E-1,-3.451386094E-2,-6.337722391E-2
8.738146355E0,1.426369250E-1,-4.917461425E-2,1.298087649E-2
8.747896251E0,8.949168772E-2,-2.901607752E-2,1.094975099E-1
8.757646251E0,1.035415828E-1,-7.116574794E-2,1.687513888E-1
8.767396251E0,1.634063274E-1,-1.285870373E-1,1.724165827E-1
8.777146251E0,1.878409237E-1,-1.737910360E-1,1.253799945E-1
8.786896251E0,1.597411335E-1,-2.538143098E-1,1.970038936E-2
8.796646251E0,1.059850380E-1,-3.240637779E-1,-1.201876476E-1
8.806396251E0,1.924224012E-2,-3.368919194E-1,-2.386954129E-1
8.816146147E0,-1.023198515E-1,-2.990183234E-1,-3.156643808E-1
8.825896147E0,-2.367101014E-1,-2.281579971E-1,-3.211621642E-1
8.835646147E0,-3.307832778E-1,-1.420260668E-1,-2.600756884E-1
8.845396147E0,-3.698786199E-1,-4.795288667E-2,-1.403461844E-1
8.855146147E0,-3.356702030E-1,3.023780696E-2,1.359174121E-2
8.864896147E0,-2.379318327E-1,1.114828214E-1,1.406516135E-1
8.874646043E0,-1.560759544E-1,1.640172005E-1,2.200640440E-1
8.884396043E0,-9.560033679E-2,1.737910360E-1,2.341139317E-1
8.894146043E0,-5.589412898E-2,1.340848207E-1,2.054032832E-1
8.903896043E0,-2.412915789E-2,9.621120244E-2,1.504254490E-1
8.913646043E0,1.435532235E-2,1.029307172E-1,9.666935354E-2
8.923396043E0,2.596175298E-2,1.463021189E-1,5.635227636E-2
8.933145939E0,-1.069013402E-2,2.147189677E-1,6.001746282E-2
8.942895939E0,-8.582650125E-2,2.770271897E-1,1.229365394E-1
8.952645939E0,-1.640172005E-1,2.690859437E-1,2.243400961E-1
8.962395939E0,-1.664606482E-1,1.872300506E-1,3.874409795E-1
8.972145939E0,-8.826996386E-2,1.383608729E-1,5.920807123E-1
8.981895939E0,-1.618791744E-2,1.646280587E-1,7.594576478E-1
8.991645834E0,-3.695731983E-2,2.134972364E-1,7.796161771E-1
9.001395834E0,-1.346956789E-1,2.464839369E-1,6.427824497E-1
9.011145834E0,-2.446513474E-1,2.855792940E-1,4.265363216E-1
9.020895834E0,-3.491092324E-1,3.289506733E-1,2.090684772E-1
9.030645834E0,-3.692677617E-1,3.332267404E-1,8.384118974E-2
9.040395730E0,-2.580903769E-1,3.179551065E-1,9.666935354E-2
9.050145730E0,-1.496618707E-2,2.532034516E-1,2.231183648E-1
9.059895730E0,3.118464649E-1,1.957821548E-1,4.295906425E-1
9.069645730E0,5.677987933E-1,1.487455666E-1,6.305651665E-1
9.079395626E0,6.673697829E-1,8.765909821E-2,7.447968721E-1
9.089145626E0,5.561923981E-1,1.679878123E-2,6.947059631E-1
9.098895626E0,2.904661894E-1,-1.017089859E-1,4.833467603E-1
9.108645626E0,-1.191186346E-2,-2.501491308E-1,2.163988501E-1
9.118395626E0,-2.324340492E-1,-3.203985691E-1,-5.299251899E-2
9.128145522E0,-2.483165264E-1,-2.831358314E-1,-2.264781147E-1
9.137895522E0,1.924224012E-2,-1.786779463E-1,-2.063195854E-1
9.147645522E0,4.767799675E-1,8.582650125E-2,-4.016435891E-2
9.157395522E0,9.502001405E-1,4.969384968E-1,1.840230078E-1
9.167145418E0,1.288619280E0,9.575305581E-1,5.022835732E-1
9.176895418E0,1.325881958E0,1.046716809E0,7.863357067E-1
9.186645418E0,1.026558280E0,6.808087826E-1,7.258600593E-1
9.196395418E0,5.384773016E-1,2.748891478E-3,3.263545036E-1
9.206145314E0,9.468403645E-3,-5.164861679E-1,-6.398808211E-2
9.215895314E0,-3.692677617E-1,-5.922334194E-1,-3.223838806E-1
9.225645314E0,-4.499019086E-1,-4.242455959E-1,-4.445568323E-1
9.235395314E0,-1.200349256E-1,-1.890626550E-1,-3.718639314E-1
9.245145209E0,5.604684353E-1,1.291978955E-1,-1.177441850E-1
9.254895209E0,1.253189087E0,4.657844007E-1,2.231183648E-1
9.264645209E0,1.685681343E0,5.629118681E-1,4.680751264E-1
9.274395105E0,1.694233418E0,2.079994529E-1,5.279398561E-1
9.284145105E0,1.295338750E0,-3.191768527E-1,4.515817761E-1
9.293895105E0,5.311469436E-1,-5.366446972E-1,2.768744528E-1
9.303645105E0,-3.692677617E-1,-3.277289569E-1,7.528908551E-2
9.313395001E0,-1.008232355E0,1.359174103E-1,-1.153007299E-1
9.323145001E0,-1.200654745E0,6.832522750E-1,-1.684459597E-1
9.332895001E0,-9.856303334E-1,1.126129270E0,3.817904973E-3
9.342644897E0,-2.464839369E-1,1.212261200E0,3.123046160E-1
9.352394897E0,7.669407129E-1,8.726203442E-1,6.696605086E-1
9.362144897E0,1.536630392E0,4.877755344E-1,9.341649413E-1
9.371894793E0,1.895818830E0,2.501491308E-1,1.054505348E0
9.381644793E0,1.932470679E0,8.521563560E-2,1.085659385E0
9.391394793E0,1.538462996E0,1.878409237E-1,9.537126422E-1
9.401144793E0,5.904008150E-1,6.270527244E-1,5.823068619E-1
9.410894689E0,-6.588176489E-1,1.101694584E0,-1.317940801E-1
9.420644689E0,-1.833510637E0,1.455385327E0,-8.049670458E-1
9.430394689E0,-2.449873209E0,1.520136952E0,-9.815070033E-1
9.440144584E0,-1.789528370E0,1.021060467E0,-5.862774849E-1
9.449894584E0,-3.368919194E-1,4.205803871E-1,3.619373962E-2
9.459644584E0,8.903354406E-1,2.147189677E-1,4.723511934E-1
9.469394480E0,1.542128086E0,1.988364905E-1,7.246383429E-1
9.479144480E0,1.702174664E0,-1.188132018E-1,7.258600593E-1
9.488894376E0,1.429118156E0,-6.294961572E-1,2.884808779E-1
9.498644376E0,7.559451461E-1,-9.104939699E-1,-2.649625838E-1
9.508394376E0,-6.505709887E-2,-1.018617034E0,-7.005091906E-1
9.518144376E0,-6.068941355E-1,-9.874629378E-1,-9.460768104E-1
9.527894272E0,-7.119628787E-1,-5.592467189E-1,-9.234748483E-1
9.537644272E0,-4.804451466E-1,1.029307172E-1,-6.168206930E-1
9.547394272E0,2.168569900E-2,8.304706812E-1,-6.154462695E-2
9.557144168E0,7.156280875E-1,1.174998403E0,4.760163724E-1
9.566894168E0,1.523802161E0,6.734784245E-1,7.441860437E-1
9.576644064E0,1.671020627E0,6.414080039E-3,7.612902522E-1
9.586394064E0,1.036942959E0,-2.806923687E-1,7.704532146E-1
9.596144064E0,9.621120244E-2,-5.207622051E-1,6.372846961E-1
9.605893959E0,-6.594285369E-1,-5.323686600E-1,3.691150546E-1
9.615643959E0,-1.111468434E0,-3.081812859E-1,1.400407553E-1
9.625393959E0,-9.483675957E-1,-2.275471240E-1,1.119409725E-1
9.635143855E0,-7.422006875E-2,-8.582650125E-2,2.200640440E-1
9.644893855E0,1.077870846E0,5.283980444E-2,3.061959743E-1
9.654643751E0,2.159712315E0,5.345066637E-2,3.489564955E-1
9.664393751E0,2.947727919E0,-1.982256174E-1,4.289797843E-1
9.674143751E0,3.112050533E0,-5.103775263E-1,4.027126133E-1
9.683893647E0,2.540281296E0,-6.441569328E-1,1.149952933E-1
9.693643543E0,1.611766696E0,-8.323032856E-1,-2.411388755E-1
9.703393543E0,7.009673119E-1,-1.065653563E0,-5.154171586E-1
9.713143543E0,-1.383608729E-1,-1.256243467E0,-7.121156454E-1
9.722893543E0,-8.750637770E-1,-1.250745654E0,-7.218894362E-1
9.732643439E0,-1.381470680E0,-1.153007269E0,-4.628827870E-1
9.742393439E0,-1.454774499E0,-1.085201263E0,-1.177441850E-1
9.752143334E0,-1.188437462E0,-9.648609161E-1,1.601992846E-1
9.761893334E0,-8.970549107E-1,-6.514872909E-1,3.697259128E-1
9.771643334E0,-6.991347671E-1,-2.397644222E-1,3.898844421E-1
9.781393230E0,-6.056724191E-1,1.725693047E-1,2.652680278E-1
9.791143230E0,-6.863065958E-1,4.156934917E-1,1.278234571E-1
9.800893126E0,-8.139773011E-1,3.973675370E-1,7.956513762E-2
9.810643126E0,-8.671225309E-1,2.532034516E-1,9.422589093E-2
9.820393022E0,-1.030834317E0,1.554650813E-1,7.345648855E-2
9.830143022E0,-1.355203509E0,3.634645417E-2,5.635227636E-2
9.839893022E0,-1.623983979E0,-1.548542231E-1,7.651081681E-2
9.849642918E0,-1.705839872E0,-2.996291816E-1,9.544762224E-2
9.859392918E0,-1.565340996E0,-3.533852696E-1,1.143844277E-1
9.869142814E0,-1.272736788E0,-3.130682111E-1,7.406735420E-2
9.878892814E0,-8.384119272E-1,-2.556469142E-1,1.237001177E-2
9.888642709E0,-3.906480372E-1,-1.963930279E-1,-2.122755162E-2
9.898392709E0,-6.200277433E-2,-2.006690800E-1,-4.688387364E-2
9.908142605E0,1.444695145E-1,-2.018908113E-1,-6.948586553E-2
9.917892605E0,1.890626550E-1,-1.322522312E-1,-1.079703495E-1
9.927642501E0,9.010255337E-2,-3.451386094E-2,-1.434005052E-1
9.937392501E0,-6.872228533E-2,6.627883017E-2,-1.348484010E-1
9.947142397E0,-2.458730787E-1,1.670715213E-1,-8.964440972E-2
9.956892397E0,-5.006036758E-1,2.025016695E-1,-5.955931731E-3
9.966642397E0,-7.626646757E-1,1.908952445E-1,1.033888608E-1
9.976392293E0,-8.903354406E-1,1.768453568E-1,1.956294477E-1
9.986142293E0,-9.202677608E-1,1.560759544E-1,2.157879770E-1
9.995892189E0,-9.135482907E-1,6.078104675E-2,1.711948514E-1
1.000564219E1,-7.797688842E-1,2.962694131E-2,1.760817766E-1
1.001539208E1,-5.085449219E-1,-1.618791744E-2,2.225074917E-1
1.002514208E1,-1.273653060E-1,-1.139262840E-1,1.540906429E-1
1.003489198E1,2.587012351E-1,-1.707367003E-1,2.764163166E-2
1.004464198E1,4.951058924E-1,-1.707367003E-1,-5.238165334E-2
1.005439188E1,5.403099060E-1,-1.243109852E-1,-8.109229803E-2
1.006414188E1,4.804451466E-1,-6.261363626E-2,-9.086613357E-2
1.007389177E1,4.034761786E-1,-8.857538924E-3,-8.536835015E-2
1.008364177E1,3.625482321E-1,-4.489856213E-2,-7.131846249E-2
1.009339167E1,4.083631039E-1,-1.805105358E-1,-2.061668597E-2
1.010314167E1,4.957167804E-1,-2.837466896E-1,3.130681813E-2
1.011289156E1,5.702422857E-1,-2.758054435E-1,6.856957078E-2
1.012264156E1,6.026180983E-1,-2.043342739E-1,8.689551800E-2
1.013239146E1,6.252201200E-1,-1.469129771E-1,8.445205539E-2
1.014214146E1,6.820304990E-1,-9.193515033E-2,7.040216774E-2
1.015189136E1,7.260127664E-1,-4.978547990E-2,8.506292105E-2
1.016164125E1,7.339540124E-1,-1.017089859E-1,1.565341055E-1
1.017139125E1,7.699950337E-1,-2.422078848E-1,2.872591615E-1
1.018114115E1,8.665117025E-1,-2.800815105E-1,4.240928590E-1
1.019089115E1,1.008232355E0,-2.336557806E-1,5.022835732E-1
1.020064104E1,1.143844247E0,-4.367683083E-2,5.261073112E-1
1.021039104E1,1.099861979E0,2.947422564E-1,4.790706933E-1
1.022014094E1,8.805615902E-1,4.920515716E-1,3.556760252E-1
1.022989094E1,6.722567081E-1,5.048797131E-1,1.718057245E-1
1.023964083E1,5.335903764E-1,3.790415823E-1,-6.765327603E-2
1.024939083E1,4.615083337E-1,2.269362658E-1,-2.411388755E-1
1.025914073E1,5.641336441E-1,8.032871783E-2,-2.838993967E-1
1.026889073E1,7.761036754E-1,2.672533393E-1,-1.824958473E-1
1.027864063E1,1.164002895E0,7.137954831E-1,-2.901607659E-3
1.028839052E1,1.592218995E0,1.077870846E0,1.620318890E-1
1.029814052E1,1.787695765E0,1.274569392E0,1.834121495E-1
1.030789042E1,1.653305531E0,1.288619280E0,4.352411628E-2
1.031764042E1,1.168889761E0,1.104748964E0,-1.562286615E-1
1.032739031E1,4.218021333E-1,8.713986278E-1,-2.539670467E-1
1.033714031E1,-4.175260663E-1,5.042688847E-1,-2.790125012E-1
1.034689021E1,-1.184161425E0,1.359174103E-1,-3.248273432E-1
1.035664021E1,-1.683848739E0,-1.194240674E-1,-2.454149276E-1
1.036639010E1,-1.614821076E0,-2.666424811E-1,-7.192932814E-2
1.037614000E1,-1.094975114E0,-2.458730787E-1,6.551524997E-2
1.038589000E1,-4.718930423E-1,7.422006875E-2,6.185005978E-2
1.039563990E1,-1.252272818E-2,4.059196413E-1,-7.498364896E-2
1.040538990E1,1.634063274E-1,4.352411628E-1,-2.399171442E-1
1.041513979E1,2.446513474E-1,2.947422564E-1,-3.669770062E-1
1.042488969E1,2.257145345E-1,6.200277433E-2,-4.616610706E-1
1.043463969E1,-1.004872546E-1,-2.922987938E-1,-5.441278219E-1
1.044438958E1,-7.504473925E-1,-5.891790986E-1,-6.076577306E-1
1.045413958E1,-1.492037177E0,-6.942478418E-1,-5.966621637E-1
1.046388948E1,-2.087019444E0,-6.820304990E-1,-5.850557685E-1
1.047363948E1,-2.328922033E0,-6.246092319E-1,-6.540834904E-1
1.048338938E1,-2.113286734E0,-5.500837564E-1,-7.841976881E-1
1.049313927E1,-1.482874274E0,-5.177078843E-1,-8.617774844E-1
1.050288927E1,-7.247910500E-1,-4.193586707E-1,-7.939714789E-1
1.051263917E1,-2.098320574E-1,-2.483165264E-1,-6.980656981E-1
1.052238906E1,9.926552325E-2,-2.104429156E-1,-6.479747891E-1
1.053213906E1,2.959639728E-1,-3.320049942E-1,-5.300779343E-1
1.054188896E1,2.745837271E-1,-4.694495797E-1,-3.602575064E-1
1.055163896E1,1.346956789E-1,-4.932733178E-1,-2.002109289E-1
1.056138886E1,-2.168569900E-2,-3.295615613E-1,-9.269873053E-2
1.057113875E1,-1.646280587E-1,9.162971983E-4,-5.360338464E-2
1.058088875E1,-2.727511227E-1,3.527744114E-1,-9.453132749E-2
1.059063865E1,-2.519817352E-1,5.018253922E-1,-1.690568328E-1
1.060038865E1,-1.530216336E-1,5.091558099E-1,-1.776089370E-1
1.061013854E1,-1.090393662E-1,3.448331654E-1,-9.025526792E-2
1.061988844E1,-1.835648715E-1,3.084867075E-2,5.207622424E-2
1.062963844E1,-3.717112243E-1,-2.996291816E-1,1.779143661E-1
1.063938833E1,-6.649262905E-1,-4.358520210E-1,2.628245652E-1
1.064913813E1,-1.014340997E0,-2.910770774E-1,3.385718167E-1
1.065888823E1,-1.412624836E0,-4.856374860E-2,3.764454126E-1
1.066863813E1,-1.738215685E0,2.324340492E-1,4.100429714E-1
1.067838813E1,-1.860999584E0,4.999928176E-1,4.259254634E-1
1.068813802E1,-1.717446327E0,4.566214085E-1,3.837758005E-1
1.069788792E1,-1.262962937E0,2.138026757E-3,1.583666950E-1
1.070763792E1,-5.946768522E-1,-6.239983439E-1,-2.160934210E-1
1.071738781E1,-7.024944760E-3,-1.111468434E0,-5.258018374E-1
1.072713771E1,2.929096520E-1,-1.468824387E0,-6.815723777E-1
1.073688771E1,3.106247485E-1,-1.499978423E0,-8.330668211E-1
1.074663760E1,6.994401664E-2,-1.039997339E0,-9.369138479E-1
1.075638750E1,-2.886336148E-1,-3.827067912E-1,-9.088140726E-1
1.076613750E1,-5.598575473E-1,2.251036763E-1,-8.556688428E-1
1.077588740E1,-5.677987933E-1,5.604684353E-1,-8.422298431E-1
1.078563729E1,-2.532034516E-1,5.213730931E-1,-7.732021213E-1
1.079538729E1,2.043342739E-1,1.841757298E-1,-5.942187309E-1
1.080513719E1,5.140427351E-1,-2.287688553E-1,-4.170679152E-1
1.081488708E1,6.044507027E-1,-5.329795480E-1,-2.606865466E-1
1.082463708E1,5.128209591E-1,-6.850848794E-1,-9.208786488E-2
1.083438698E1,3.625482321E-1,-6.911935210E-1,-1.328630932E-2
1.084413688E1,2.025016695E-1,-5.940660238E-1,-7.864884287E-2
1.085388688E1,1.527161920E-3,-4.975493550E-1,-2.148716897E-1
1.086363677E1,-1.414151937E-1,-2.593120933E-1,-2.710712552E-1
1.087338667E1,-1.401934624E-1,9.010255337E-2,-1.556178033E-1
1.088313667E1,-1.579085439E-1,3.466657698E-1,4.046979174E-2
1.089288656E1,-1.988364905E-1,4.163043499E-1,2.548833191E-1
1.090263646E1,-1.218675226E-1,3.674351573E-1,4.595230222E-1
1.091238646E1,1.737910360E-1,2.806923687E-1,5.823068619E-1
1.092213636E1,5.690205693E-1,1.249218509E-1,5.804742575E-1
1.093188625E1,8.677334189E-1,-7.055488229E-2,4.094321132E-1
1.094163625E1,9.471458197E-1,-2.025016695E-1,1.009454057E-1
1.095138615E1,7.027999163E-1,-3.796524704E-1,-2.386954129E-1
1.096113604E1,2.000582218E-1,-5.885682106E-1,-5.361865759E-1
1.097088604E1,-3.668242991E-1,-7.296779752E-1,-7.011200786E-1
1.098063594E1,-8.481857181E-1,-5.732966065E-1,-7.047852278E-1
1.099038583E1,-1.182328820E0,-1.860083193E-1,-5.899426341E-1
1.100013573E1,-1.300225735E0,1.273653060E-1,-4.182896614E-1
1.100988573E1,-1.068707943E0,3.045161068E-1,-2.179260105E-1
1.101963563E1,-5.885682106E-1,4.205803871E-1,1.985310577E-3
1.102938552E1,-8.277218044E-2,4.871646762E-1,1.858556122E-1
1.103913552E1,2.678641975E-1,6.643154621E-1,3.581194878E-1
1.104888542E1,3.155116439E-1,8.359684348E-1,4.967857897E-1
1.105863531E1,6.414080039E-3,1.027779937E0,5.199986696E-1
1.106838521E1,-6.227766275E-1,1.238528371E0,3.886627257E-1
1.107813521E1,-1.480430841E0,1.358257890E0,1.553123742E-1
1.108788511E1,-2.305098295E0,1.323438525E0,-8.597921580E-2
1.109763500E1,-2.833496332E0,1.100472927E0,-2.264781147E-1
1.110738500E1,-2.986212492E0,6.759218574E-1,-2.197586000E-1
1.111713490E1,-2.792568445E0,1.756236255E-1,-1.214093715E-1
1.112688479E1,-2.369239092E0,-2.984074354E-1,-5.665770918E-2
1.113663469E1,-1.807854295E0,-7.333431840E-1,-8.475748450E-2
1.114638469E1,-1.202487350E0,-9.862411618E-1,-1.623373181E-1
1.115613458E1,-6.850848794E-1,-1.149952888E0,-2.338084877E-1
1.116588448E1,-3.399462402E-1,-1.264795542E0,-2.918406427E-1
1.117563448E1,-1.896735132E-1,-1.220202446E0,-3.339903057E-1
1.118538438E1,-2.360992432E-1,-9.856303334E-1,-3.639226854E-1
1.119513427E1,-3.686569035E-1,-6.459894776E-1,-4.048506320E-1
1.120488417E1,-4.358520210E-1,-3.118464649E-1,-4.390590489E-1
1.121463417E1,-3.888154328E-1,-9.193515033E-2,-4.641045034E-1
1.122438406E1,-2.580903769E-1,7.238747925E-2,-4.708240330E-1
1.123413396E1,-8.765909821E-2,2.599229515E-1,-4.549415410E-1
1.124388386E1,1.029307172E-1,4.523453712E-1,-3.834703565E-1
1.125363386E1,3.320049942E-1,6.270527244E-1,-2.234237939E-1
1.126338375E1,5.910117030E-1,7.394518256E-1,7.483093534E-3
1.127313365E1,8.384119272E-1,6.911935210E-1,2.390008420E-1
1.128288354E1,1.046716809E0,3.955349326E-1,4.583013058E-1
1.129263354E1,1.211039424E0,-5.283980444E-2,6.256782413E-1
1.130238344E1,1.319773316E0,-5.115992427E-1,6.708822250E-1
1.131213333E1,1.349094868E0,-8.549052477E-1,5.627591610E-1
1.132188323E1,1.282510638E0,-9.807434082E-1,3.416261375E-1
1.133163323E1,1.127961874E0,-8.720094562E-1,8.078686893E-2
1.134138313E1,9.288198948E-1,-6.087267399E-1,-1.128572673E-1
1.135113302E1,7.785471678E-1,-2.690859437E-1,-1.769980639E-1
1.136088292E1,7.333431840E-1,3.207040206E-2,-1.550069451E-1
1.137063292E1,8.029817343E-1,2.183841616E-1,-1.226311028E-1
1.138038281E1,9.043853283E-1,2.666424811E-1,-8.109229803E-2
1.139013271E1,9.294307828E-1,2.189950198E-1,-1.817322709E-2
1.139988260E1,8.060360551E-1,1.359174103E-1,6.062832847E-2
1.140963260E1,5.696313977E-1,2.657261863E-2,1.333212405E-1
1.141938250E1,2.935205400E-1,-3.329212964E-2,1.718057245E-1
1.142913240E1,1.863137633E-2,-7.055488229E-2,1.803578287E-1
1.143888229E1,-1.970038861E-1,-1.597411335E-1,1.718057245E-1
1.144863229E1,-2.922987938E-1,-2.672533393E-1,1.247691289E-1
1.145838219E1,-2.513708472E-1,-3.399462402E-1,4.718930274E-2
1.146813208E1,-1.120936871E-1,-3.344484568E-1,-2.000582218E-2
1.147788198E1,4.184423760E-2,-2.519817352E-1,-6.032289565E-2
1.148763188E1,1.811214089E-1,-1.237001196E-1,-1.030834317E-1
1.149738188E1,2.525925934E-1,1.023198515E-1,-1.721111536E-1
1.150713177E1,2.202167511E-1,3.002400398E-1,-2.203694731E-1
1.151688167E1,1.322522312E-1,3.930914998E-1,-2.295324355E-1
1.152663156E1,9.010255337E-2,3.802633286E-1,-2.069304436E-1
1.153638156E1,1.316413581E-1,2.367101014E-1,-1.440113783E-1
1.154613146E1,2.214384824E-1,3.695731983E-2,-6.643154472E-2
1.155588136E1,2.977965772E-1,-2.122755051E-1,-3.711003438E-2
1.156563125E1,3.381136656E-1,-4.364628792E-1,-8.659008145E-2
1.157538115E1,3.039052188E-1,-5.280926228E-1,-1.879936308E-1
1.158513115E1,1.328630894E-1,-4.437932670E-1,-2.661843300E-1
1.159488104E1,-1.609628648E-1,-2.067777216E-1,-2.924515009E-1
1.160463094E1,-4.700604379E-1,1.249218509E-1,-2.667951882E-1
1.161438083E1,-6.710349321E-1,3.735437989E-1,-1.592829973E-1
1.162413073E1,-7.046325207E-1,4.755582213E-1,-2.122755162E-2
1.163388073E1,-5.745183229E-1,3.814850450E-1,1.070540547E-1
1.164363063E1,-3.063486814E-1,1.017089859E-1,1.791360974E-1
1.165338052E1,3.878991306E-2,-1.750127524E-1,1.608101577E-1
1.166313042E1,3.155116439E-1,-3.399462402E-1,5.879573524E-2
1.167288042E1,4.065304995E-1,-3.912588954E-1,-5.665770918E-2
1.168263031E1,3.191768527E-1,-3.582721949E-1,-1.311832070E-1
1.169238021E1,1.481347084E-1,-3.271180987E-1,-1.598938555E-1
1.170213010E1,-3.756818548E-2,-2.299905866E-1,-1.721111536E-1
1.171188000E1,-1.902843714E-1,-1.646280587E-1,-1.971566081E-1
1.172163000E1,-2.293797284E-1,-1.597411335E-1,-2.160934210E-1
1.173137990E1,-1.634063274E-1,-1.707367003E-1,-2.093739063E-1
1.174112979E1,-4.123337194E-2,-1.615737379E-1,-1.794415265E-1
1.175087969E1,9.315688163E-2,-9.132428467E-2,-1.342375278E-1
1.176062958E1,2.183841616E-1,-3.940077871E-2,-7.437278330E-2
1.177037948E1,3.167333901E-1,1.313359290E-2,7.635809598E-4
1.178012948E1,3.827067912E-1,7.666353136E-2,6.062832847E-2
1.178987938E1,4.303542376E-1,1.035415828E-1,1.131627038E-1
1.179962927E1,4.462367296E-1,6.811141968E-2,1.766926348E-1
1.180937917E1,3.985892832E-1,8.857538924E-3,2.322813272E-1
1.181912906E1,2.965748608E-1,-4.489856213E-2,2.542724609E-1
1.182887906E1,1.823431402E-1,-6.688969582E-2,2.225074917E-1
1.183862896E1,8.460476995E-2,-3.207040206E-2,1.473711282E-1
1.184837886E1,2.168569900E-2,3.970621154E-3,7.467821985E-2
1.185812875E1,1.191186346E-2,1.985310577E-2,3.741546720E-2
1.186787865E1,4.367683083E-2,2.901607752E-2,2.458730713E-2
1.187762854E1,9.498947114E-2,3.023780696E-2,2.703076601E-2
1.188737854E1,1.548542231E-1,1.007926930E-2,4.963276163E-2
1.189712844E1,2.086103261E-1,-2.535088919E-2,8.750637621E-2
1.190687833E1,2.373209596E-1,-6.322450191E-2,1.314886510E-1
1.191662823E1,2.238819450E-1,-4.062250629E-2,1.766926348E-1
1.192637813E1,1.811214089E-1,5.803215317E-3,2.292270064E-1
1.193612802E1,1.212566569E-1,1.802051067E-2,2.561050653E-1
1.194587802E1,4.856374860E-2,-1.007926930E-2,2.506072819E-1
1.195562792E1,-9.468403645E-3,-4.184423760E-2,2.341139317E-1
1.196537781E1,-4.001164436E-2,-4.978547990E-2,2.151771188E-1
1.197512771E1,-5.283980444E-2,-4.550942779E-2,1.895207912E-1
1.198487761E1,-5.406153202E-2,-2.046396956E-2,1.492037177E-1
1.199462761E1,-6.261363626E-2,1.527161920E-3,9.911280870E-2
1.200437750E1,-8.277218044E-2,3.512472659E-2,5.451968312E-2
1.201412740E1,-1.310304999E-1,9.071341902E-2,1.298087649E-2
1.202387729E1,-1.866191924E-1,1.438586563E-1,-3.222311661E-2
1.203362719E1,-2.098320574E-1,1.878409237E-1,-8.292489499E-2
1.204337708E1,-1.988364905E-1,1.988364905E-1,-1.305723488E-1
1.205312708E1,-1.689041108E-1,1.945604384E-1,-1.684459597E-1
1.206287698E1,-1.365282834E-1,2.055560052E-1,-1.849393100E-1
1.207262688E1,-1.206457913E-1,1.664606482E-1,-1.886045039E-1
1.208237677E1,-1.365282834E-1,7.360920310E-2,-1.996000707E-1
1.209212667E1,-1.615737379E-1,-8.460476995E-2,-2.234237939E-1
1.210187656E1,-1.548542231E-1,-2.061668634E-1,-2.454149276E-1
1.211162646E1,-1.517999023E-1,-2.764163017E-1,-2.503018379E-1
1.212137646E1,-1.432477981E-1,-2.904661894E-1,-2.527453005E-1
1.213112636E1,-9.132428467E-2,-2.159406990E-1,-2.246455252E-1
1.214087625E1,-1.313359290E-2,-1.206457913E-1,-1.592829973E-1
1.215062615E1,7.788526267E-2,-5.161807314E-2,-9.514218569E-2
1.216037604E1,1.774562150E-1,-5.192350596E-3,-3.955349326E-2
1.217012594E1,2.538143098E-1,2.474002354E-2,1.527161949E-4
1.217987594E1,2.544251680E-1,1.435532235E-2,2.764163166E-2
1.218962583E1,1.829539984E-1,-1.191186346E-2,4.780016840E-2
1.219937573E1,6.750056148E-2,-4.367683083E-2,5.818486959E-2
1.220912563E1,-5.528326333E-2,-8.704823256E-2,5.268708616E-2
1.221887552E1,-1.603520066E-1,-1.267544478E-1,2.458730713E-2
1.222862542E1,-2.452622056E-1,-1.530216336E-1,-1.511890348E-2
1.223837531E1,-2.837466896E-1,-1.426369250E-1,-4.382954910E-2
1.224812531E1,-2.495382577E-1,-6.383536756E-2,-5.238165334E-2
1.225787521E1,-1.591302752E-1,4.795288667E-2,-4.077522457E-2
1.226762510E1,-2.535088919E-2,1.554650813E-1,-4.581485991E-4
1.227737500E1,1.102610901E-1,2.629773021E-1,6.612611562E-2
1.228712490E1,1.908952445E-1,3.307832778E-1,9.911280870E-2
1.229687479E1,1.878409237E-1,3.515526950E-1,5.940660089E-2
1.230662469E1,1.010981202E-1,3.179551065E-1,-3.405570984E-2
1.231637469E1,-3.329212964E-2,2.483165264E-1,-1.641699076E-1
1.232612458E1,-1.872300506E-1,1.353065521E-1,-3.046688139E-1
1.233587448E1,-3.081812859E-1,-2.351829410E-2,-3.956876695E-1
1.234562438E1,-3.448331654E-1,-1.890626550E-1,-3.883572817E-1
1.235537427E1,-2.403752953E-1,-2.690859437E-1,-2.655734718E-1
1.236512417E1,-3.634645417E-2,-2.922987938E-1,-7.803797722E-2
1.237487406E1,1.188132018E-1,-2.244928032E-1,6.918043643E-2
1.238462406E1,1.249218509E-1,-7.177661359E-2,8.872810751E-2
1.239437396E1,-5.955931544E-2,1.090393662E-1,-3.039052337E-2
1.240412386E1,-4.358520210E-1,2.312123179E-1,-3.089448512E-1
1.241387375E1,-8.720094562E-1,1.872300506E-1,-7.041743994E-1
1.242362365E1,-1.046105981E0,2.412915789E-2,-1.068860650E0
1.243337354E1,-8.597921729E-1,-7.666353136E-2,-1.174540281E0
1.244312344E1,-4.975493550E-1,-1.175914705E-1,-9.411898851E-1
1.245287344E1,-9.498947114E-2,-1.456912458E-1,-5.471821427E-1
1.246262333E1,1.420260668E-1,-1.963930279E-1,-1.458439678E-1
1.247237323E1,1.505781710E-1,-2.910770774E-1,1.785252392E-1
1.248212313E1,7.910698652E-2,-3.063486814E-1,3.862192631E-1
1.249187302E1,4.001164436E-2,-1.811214089E-1,4.973966479E-1
1.250162292E1,3.145953640E-2,-2.107483521E-2,5.328267813E-1
1.251137281E1,4.734202102E-2,1.432477981E-1,4.986183643E-1
1.252112281E1,6.261363626E-2,2.806923687E-1,4.454731345E-1
1.253087271E1,7.116574794E-2,3.326158822E-1,4.014908671E-1
1.254062261E1,9.804379940E-2,3.155116439E-1,3.544542789E-1
1.255037250E1,1.615737379E-1,2.623664141E-1,3.251327872E-1
1.256012240E1,2.703076601E-1,1.615737379E-1,3.819431961E-1
1.256987229E1,4.382954836E-1,3.634645417E-2,5.028944016E-1
1.257962219E1,6.166679859E-1,-4.612028971E-2,6.201804876E-1
1.258937208E1,7.370083332E-1,-7.788526267E-2,6.916516423E-1
1.259912208E1,7.620537877E-1,-6.322450191E-2,6.855430007E-1
1.260887198E1,7.076868415E-1,-5.589412898E-2,5.645917654E-1
1.261862188E1,6.447677612E-1,-1.298087686E-1,3.055851161E-1
1.262837177E1,6.545416117E-1,-2.458730787E-1,1.175914705E-2
1.263812167E1,7.351757884E-1,-3.118464649E-1,-2.350302190E-1
1.264787156E1,8.451313972E-1,-2.574795187E-1,-3.272708058E-1
1.265762146E1,9.776890874E-1,-5.772672221E-2,-1.910479665E-1
1.266737146E1,1.010064960E0,1.664606482E-1,1.058323234E-1
1.267712136E1,8.158099055E-1,3.258963525E-1,4.509709179E-1
1.268687125E1,5.097666383E-1,3.094030023E-1,7.307469845E-1
1.269662115E1,2.477056682E-1,1.188132018E-1,8.223767281E-1
1.270637104E1,3.359756200E-3,-1.291978955E-1,7.704532146E-1
1.271612094E1,-1.951712966E-1,-2.525925934E-1,6.214022040E-1
1.272587083E1,-3.234528899E-1,-7.971785218E-2,4.552469850E-1
1.273562073E1,-3.564395905E-1,3.759872615E-1,3.306305707E-1
1.274537073E1,-3.179551065E-1,6.722567081E-1,1.614210159E-1
1.275512063E1,-1.371391416E-1,6.026180983E-1,-3.894263133E-2
1.276487052E1,2.623664141E-1,4.462367296E-1,-1.171333194E-1
1.277462042E1,6.795870662E-1,1.383608729E-1,-1.324049383E-1
1.278437031E1,1.000901937E0,-1.823431402E-1,-7.681624591E-2
1.279412021E1,1.032056093E0,-3.210094273E-1,8.200860023E-2
1.280387011E1,7.626646757E-1,-2.257145345E-1,2.738201320E-1
1.281362000E1,5.042688847E-1,-6.017018110E-2,4.137081802E-1
1.282337000E1,3.460549116E-1,9.254601598E-2,4.857902229E-1
1.283311990E1,1.579085439E-1,1.359174103E-1,4.393644929E-1
1.284286979E1,-7.360920310E-2,1.475238502E-1,1.223256737E-1
1.285261969E1,-2.580903769E-1,2.159406990E-1,-2.863428593E-1
1.286236958E1,-2.831358314E-1,1.493564397E-1,-5.636754632E-1
1.287211948E1,-2.006690800E-1,8.521563560E-2,-6.412553191E-1
1.288186938E1,-1.530216336E-1,2.770271897E-1,-5.203040838E-1
1.289161927E1,-8.643736690E-2,5.726857185E-1,-2.643517256E-1
1.290136917E1,1.401934624E-1,6.478220820E-1,-3.405570984E-2
1.291111917E1,4.688387215E-1,4.505127668E-1,1.359174121E-2
1.292086906E1,7.357866168E-1,3.014617562E-1,-3.466657549E-2
1.293061896E1,8.225294352E-1,1.744018942E-1,-2.069304436E-1
1.294036886E1,8.115338683E-1,-1.072067693E-1,-4.421133697E-1
1.295011875E1,7.687733173E-1,-2.984074354E-1,-6.815723777E-1
1.295986865E1,6.679806113E-1,-2.910770774E-1,-9.619593024E-1
1.296961854E1,6.166679859E-1,-6.933315098E-2,-9.802852273E-1
1.297936844E1,6.710349321E-1,2.904661894E-1,-6.461422443E-1
1.298911844E1,9.385937452E-1,6.276635528E-1,-1.214093715E-1
1.299886833E1,1.280067086E0,9.801325202E-1,4.149298966E-1
1.300861823E1,1.461493969E0,9.819651246E-1,7.661771774E-1
1.301836813E1,1.424842119E0,5.794052482E-1,8.095485568E-1
1.302811802E1,1.069318771E0,7.177661359E-2,5.969675779E-1
1.303786792E1,1.359174103E-1,-3.094030023E-1,5.024362728E-2
1.304761781E1,-1.131626964E0,-4.547888339E-1,-7.805324793E-1
1.305736771E1,-2.183536053E0,-3.112356067E-1,-1.528230906E0
1.306711760E1,-2.462090492E0,-4.993819594E-1,-1.745087981E0
1.307686760E1,-1.640477419E0,-5.818486810E-1,-1.096960425E0
1.308661750E1,-3.100138903E-1,-1.249218509E-1,8.506292105E-2
1.309636740E1,6.765327454E-1,5.256491303E-1,9.262236953E-1
1.310611729E1,1.122464061E0,6.759218574E-1,1.091768026E0
1.311586719E1,1.241582632E0,2.251036763E-1,7.148644924E-1
1.312561708E1,1.148731232E0,-7.788526267E-2,1.430950761E-1
1.313536698E1,6.319395900E-1,-7.024944760E-3,-3.553705812E-1
1.314511688E1,-7.605266571E-2,1.127045527E-1,-7.683151960E-1
1.315486677E1,-5.806269646E-1,1.640172005E-1,-9.363030195E-1
1.316461677E1,-8.054252267E-1,2.202167511E-1,-6.504182816E-1
1.317436667E1,-5.806269646E-1,2.996291816E-1,-1.634063199E-2
1.318411656E1,1.127045527E-1,4.951058924E-1,5.682569742E-1
1.319386646E1,9.453132749E-1,6.343830824E-1,8.449786901E-1
1.320361636E1,1.684459686E0,6.624828577E-1,9.188933372E-1
1.321336625E1,2.295324326E0,4.590648711E-1,9.091194868E-1
1.322311615E1,2.636186838E0,-7.727439702E-2,7.704532146E-1
1.323286604E1,2.363741159E0,-7.718276381E-1,5.713112950E-1
1.324261594E1,1.607490659E0,-1.246469617E0,4.216494262E-1
1.325236583E1,8.396336436E-1,-1.205541611E0,2.878700197E-1
1.326211583E1,2.055560052E-1,-6.575959325E-1,-2.489273995E-2
1.327186573E1,-6.078104675E-2,7.849612087E-2,-3.993528485E-1
1.328161563E1,-4.245510325E-2,8.121446967E-1,-6.479747891E-1
1.329136552E1,5.283980444E-2,1.164002895E0,-6.467530727E-1
1.330111542E1,9.376774728E-2,1.202487350E0,-4.103484154E-1
1.331086531E1,5.711585656E-2,1.218980670E0,-1.385135949E-1
1.332061521E1,2.748891478E-3,1.221424103E0,1.027780026E-1
1.333036510E1,-2.412915789E-2,1.110246778E0,2.927569449E-1
1.334011500E1,1.496618707E-2,9.043853283E-1,3.837758005E-1
1.334986490E1,1.679878123E-2,6.093376279E-1,3.220784664E-1
1.335961490E1,-1.560759544E-1,7.910698652E-2,2.090684772E-1
1.336936479E1,-5.238165259E-1,-3.735437989E-1,1.253799945E-1
1.337911469E1,-1.063820958E0,-5.794052482E-1,1.175914705E-2
1.338886458E1,-1.706450820E0,-7.504473925E-1,-1.116355360E-1
1.339861448E1,-2.204305649E0,-7.290670872E-1,-2.020435184E-1
1.340836438E1,-2.394284487E0,-4.761691093E-1,-2.350302190E-1
1.341811427E1,-2.303876400E0,-3.197877109E-1,-3.578140438E-1
1.342786417E1,-2.170707941E0,-3.222311735E-1,-5.942187309E-1
1.343761406E1,-2.007606983E0,-3.729329407E-1,-8.165735006E-1
1.344736396E1,-1.647807717E0,-2.672533393E-1,-8.697187304E-1
1.345711386E1,-1.197600365E0,-1.438586563E-1,-7.047852278E-1
1.346686386E1,-7.962622643E-1,-7.116574794E-2,-3.712530732E-1
1.347661375E1,-4.963276386E-1,-9.621120244E-2,3.817904973E-3
1.348636365E1,-2.470948100E-1,-1.884517819E-1,3.471239209E-1
1.349611354E1,1.863137633E-2,-3.258963525E-1,5.768090487E-1
1.350586344E1,2.666424811E-1,-4.608974755E-1,6.586649418E-1
1.351561333E1,3.442223072E-1,-5.574141145E-1,6.232348084E-1
1.352536323E1,2.000582218E-1,-6.814196706E-1,4.937314689E-1
1.353511313E1,-1.169806048E-1,-7.925970554E-1,2.854265571E-1
1.354486302E1,-5.048797131E-1,-7.944296598E-1,7.773254067E-2
1.355461292E1,-7.699950337E-1,-5.781835318E-1,-4.321868345E-2
1.356436281E1,-8.689551353E-1,-3.320049942E-1,-6.520981342E-2
1.357411271E1,-7.547234297E-1,-7.299833745E-2,4.428769462E-3
1.358386271E1,-4.914407134E-1,2.544251680E-1,1.406516135E-1
1.359361260E1,-1.517999023E-1,5.097666383E-1,2.872591615E-1
1.360336250E1,1.689041108E-1,6.563742161E-1,3.526217043E-1
1.361311240E1,3.930914998E-1,5.842921734E-1,3.202458620E-1
1.362286229E1,4.932733178E-1,3.234528899E-1,2.096793354E-1
1.363261219E1,4.902189970E-1,6.811141968E-2,6.123919412E-2
1.364236208E1,4.083631039E-1,-1.072067693E-1,-7.131846249E-2
1.365211198E1,3.081812859E-1,-2.196058929E-1,-1.562286615E-1
1.366186188E1,2.342666388E-1,-2.251036763E-1,-2.032652497E-1
1.367161177E1,2.312123179E-1,-1.548542231E-1,-1.904370934E-1
1.368136167E1,2.910770774E-1,-1.863137633E-2,-1.434005052E-1
1.369111156E1,3.265072107E-1,7.238747925E-2,-8.475748450E-2
1.370086146E1,3.582721949E-1,1.505781710E-1,-3.100138716E-2
1.371061136E1,3.381136656E-1,1.707367003E-1,-4.199695215E-2
1.372036125E1,2.202167511E-1,6.688969582E-2,-8.597921580E-2
1.373011125E1,4.489856213E-2,-1.304196268E-1,-1.287397593E-1
1.373986115E1,-1.438586563E-1,-3.704894781E-1,-1.684459597E-1
1.374961104E1,-2.580903769E-1,-5.470294356E-1,-1.611155868E-1
1.375936094E1,-1.554650813E-1,-6.081159115E-1,-9.025526792E-2
1.376911083E1,1.658497900E-1,-5.568032265E-1,6.872228812E-3
1.377886073E1,5.549706817E-1,-4.651735425E-1,1.094975099E-1
1.378861063E1,8.927788734E-1,-3.637699783E-1,2.151771188E-1
1.379836052E1,1.117577076E0,-3.100138903E-1,3.116937578E-1
1.380811042E1,1.181107044E0,-3.301724195E-1,4.051560760E-1
1.381786031E1,1.076038361E0,-4.663952589E-1,5.633700490E-1
1.382761021E1,1.030834317E0,-6.508764029E-1,7.661771774E-1
1.383736010E1,1.065653563E0,-7.247910500E-1,9.543235302E-1
1.384711000E1,1.060766697E0,-8.170316219E-1,1.060613990E0
1.385685990E1,1.005177975E0,-8.964440823E-1,1.083215952E0
1.386660979E1,9.337068200E-1,-7.669407129E-1,1.040455461E0
1.387635979E1,8.707877398E-1,-5.122101307E-1,9.689842463E-1
1.388610969E1,7.767145634E-1,-3.197877109E-1,8.785762787E-1
1.389585958E1,6.826413870E-1,-3.472766280E-1,6.934842467E-1
1.390560948E1,6.105593443E-1,-6.221657991E-1,4.833467603E-1
1.391535938E1,4.944950342E-1,-9.996802211E-1,3.269653618E-1
1.392510927E1,4.315759540E-1,-1.306945205E0,2.402225733E-1
1.393485917E1,4.670061171E-1,-1.502421975E0,2.182314396E-1
1.394460906E1,6.307178736E-1,-1.586721301E0,2.194531709E-1
1.395435896E1,9.404263496E-1,-1.475543857E0,1.828012913E-1
1.396410886E1,1.232419729E0,-1.137124777E0,6.979130208E-2
1.397385875E1,1.347262263E0,-6.673697829E-1,-1.434005052E-1
1.398360865E1,1.231197953E0,-9.437860548E-2,-3.962985277E-1
1.399335854E1,8.836159110E-1,4.218021333E-1,-5.691732764E-1
1.400310844E1,3.637699783E-1,6.417134404E-1,-6.595812440E-1
1.401285833E1,-2.238819450E-1,5.586358309E-1,-6.791289449E-1
1.402260823E1,-6.643154621E-1,3.894262910E-1,-4.897608459E-1
1.403235813E1,-7.082977295E-1,3.576613367E-1,-1.495091617E-1
1.404210802E1,-4.651735425E-1,5.488619804E-1,1.076649204E-1
1.405185792E1,-1.414151937E-1,7.602212429E-1,2.383899838E-1
1.406160781E1,9.987638891E-2,9.123265743E-1,1.449276656E-1
1.407135771E1,2.238819450E-1,1.110246778E0,-1.788306683E-1
1.408110761E1,2.861901522E-1,1.178663611E0,-5.227475166E-1
1.409085750E1,3.167333901E-1,1.152396441E0,-7.664825916E-1
1.410060740E1,2.232710719E-1,1.140179157E0,-8.611665964E-1
1.411035729E1,4.062250629E-2,1.173165798E0,-8.367320299E-1
1.412010719E1,-1.475238502E-1,1.067486167E0,-7.011200786E-1
1.412985708E1,-2.287688553E-1,8.597921729E-1,-4.500546157E-1
1.413960698E1,-1.120936871E-1,6.692023873E-1,-1.360701323E-1
1.414935688E1,6.322450191E-2,4.645626545E-1,2.341139317E-1
1.415910677E1,2.941313982E-1,2.348775119E-1,5.016726851E-1
1.416885677E1,6.551524997E-1,7.238747925E-2,5.688678026E-1
1.417860667E1,1.090088248E0,-3.130682111E-1,4.265363216E-1
1.418835656E1,1.495702386E0,-6.459894776E-1,2.072358727E-1
1.419810646E1,1.432172418E0,-7.321214676E-1,-1.330158114E-1
1.420785636E1,8.231402636E-1,-6.704241037E-1,-3.730856776E-1
1.421760625E1,4.245510325E-2,-4.279107749E-1,-4.555523992E-1
1.422735615E1,-5.580250025E-1,3.145953640E-2,-4.634936452E-1
1.423710604E1,-9.489784241E-1,5.745183229E-1,-3.987419903E-1
1.424685594E1,-1.286786675E0,1.024725676E0,-2.863428593E-1
1.425660583E1,-1.469435215E0,1.324049354E0,-2.289215773E-1
1.426635573E1,-1.356425285E0,1.369864225E0,-2.704603672E-1
1.427610563E1,-9.935715795E-1,1.030834317E0,-3.755291104E-1
1.428585552E1,-5.018253922E-1,3.619373739E-1,-4.683805704E-1
1.429560542E1,2.657261863E-2,-3.820959330E-1,-4.518872201E-1
1.430535531E1,5.018253922E-1,-9.978476167E-1,-3.321577311E-1
1.431510521E1,7.797688842E-1,-1.339931846E0,-1.788306683E-1
1.432485511E1,6.838631034E-1,-1.418122530E0,-5.299251899E-2
1.433460500E1,2.788597643E-1,-1.142011762E0,3.741546720E-2
1.434435490E1,-2.696968019E-1,-5.800161362E-1,8.811724186E-2
1.435410479E1,-8.164207935E-1,5.406153202E-2,7.895427197E-2
1.436385469E1,-1.204319954E0,6.252201200E-1,2.596175298E-3
1.437360458E1,-1.398574948E0,9.825760126E-1,-1.183550507E-1
1.438335448E1,-1.437059402E0,1.125518322E0,-1.666133702E-1
1.439310438E1,-1.364977360E0,1.069318771E0,-1.757763475E-1
1.440285427E1,-1.211650252E0,8.323032856E-1,-1.837175786E-1
1.441260417E1,-1.025947452E0,6.203331947E-1,-1.727220118E-1
1.442235406E1,-8.561269641E-1,5.794052482E-1,-9.697478265E-2
1.443210396E1,-6.618719697E-1,6.740893126E-1,5.574141070E-2
1.444185386E1,-4.193586707E-1,7.339540124E-1,3.123046160E-1
1.445160365E1,-2.428187430E-1,7.437278628E-1,6.006327868E-1
1.446135354E1,-2.599229515E-1,6.062833071E-1,7.802270651E-1
1.447110344E1,-4.248564541E-1,4.089739621E-1,7.075341344E-1
1.448085333E1,-6.466003656E-1,3.668242991E-1,4.888445437E-1
1.449060323E1,-8.628464937E-1,2.855792940E-1,1.565341055E-1
1.450035313E1,-1.098029494E0,2.202167511E-1,-3.193295598E-1
1.451010302E1,-1.440724611E0,1.915061027E-1,-8.208495378E-1
1.451985292E1,-1.787695765E0,6.383536756E-2,-1.142775297E0
1.452960281E1,-1.999055028E0,-3.405571282E-1,-1.110399485E0
1.453935271E1,-1.933081627E0,-5.598575473E-1,-6.394227147E-1
1.454910261E1,-1.579390883E0,-4.737256467E-1,1.076649204E-1
1.455885250E1,-1.092531681E0,-1.921169758E-1,6.763800383E-1
1.456860240E1,-4.114174247E-1,2.290742844E-2,8.486438990E-1
1.457835229E1,3.845393658E-1,2.147189677E-1,7.283035517E-1
1.458810219E1,8.854485154E-1,3.087921441E-1,3.171915412E-1
1.459785208E1,8.280271888E-1,2.134972364E-1,-2.600756884E-1
1.460760198E1,2.336557806E-1,5.833758786E-2,-8.013018966E-1
1.461735188E1,-6.270527244E-1,-1.701258421E-1,-1.063973784E0
1.462710177E1,-1.363144755E0,-5.024362803E-1,-1.011439323E0
1.463685167E1,-1.677740097E0,-7.425061464E-1,-6.882919073E-1
1.464660156E1,-1.685070515E0,-8.109229803E-1,-2.881754637E-1
1.465635146E1,-1.581223488E0,-7.137954831E-1,3.619373962E-2
1.466610136E1,-1.360701323E0,-5.647444725E-1,1.724165827E-1
1.467585125E1,-9.709695578E-1,-4.382954836E-1,1.571449637E-1
1.468560115E1,-5.115992427E-1,-4.285216331E-1,7.101303339E-2
1.469535104E1,-2.128863782E-1,-4.272999167E-1,-4.688387364E-2
1.470510094E1,-1.426369250E-1,-4.615083337E-1,-1.916588247E-1
1.471485083E1,-2.910770774E-1,-6.166679859E-1,-3.730856776E-1
1.472460073E1,-6.814196706E-1,-8.799507022E-1,-5.710058808E-1
1.473435052E1,-1.232419729E0,-1.163391948E0,-6.919570565E-1
1.474410042E1,-1.664301038E0,-1.357036114E0,-6.339249015E-1
1.475385031E1,-1.784641504E0,-1.434615970E0,-4.103484154E-1
1.476360021E1,-1.646586061E0,-1.327103734E0,-9.941824526E-2
1.477335010E1,-1.338099241E0,-1.065042734E0,2.451094985E-1
1.478310000E1,-9.147700071E-1,-7.144063711E-1,4.772381186E-1
1.479284990E1,-4.248564541E-1,-3.594939113E-1,5.047270060E-1
1.480259979E1,1.557705179E-2,-9.162971983E-4,4.167625010E-1
1.481234969E1,3.179551065E-1,4.218021333E-1,2.738201320E-1
1.482209958E1,3.973675370E-1,8.756746650E-1,1.247691289E-1
1.483184948E1,2.629773021E-1,1.281288862E0,3.069595434E-2
1.484159938E1,-9.468403645E-3,1.418733478E0,-3.100138716E-2
1.485134927E1,-2.556469142E-1,1.264184713E0,-9.025526792E-2
1.486109917E1,-3.368919194E-1,9.532544613E-1,-1.250745654E-1
1.487084896E1,-3.014617562E-1,5.287034512E-1,-1.116355360E-1
1.488059886E1,-2.953531146E-1,6.200277433E-2,-1.018617004E-1
1.489034875E1,-3.271180987E-1,-2.031125426E-1,-1.006399691E-1
1.490009865E1,-2.458730787E-1,-2.464839369E-1,-1.267544460E-2
1.490984854E1,2.046396956E-2,-2.110537887E-1,1.266017258E-1
1.491959844E1,3.753764033E-1,-1.383608729E-1,1.357647032E-1
1.492934833E1,5.818486810E-1,1.230892539E-1,-3.512472380E-3
1.493909823E1,5.732966065E-1,3.466657698E-1,-1.910479665E-1
1.494884813E1,4.456258714E-1,4.150826037E-1,-4.054614902E-1
1.495859802E1,2.464839369E-1,2.226602137E-1,-5.490147471E-1
1.496834792E1,9.804379940E-2,-1.860083193E-1,-5.123628378E-1
1.497809771E1,1.078176349E-1,-6.404917240E-1,-3.162752390E-1
1.498784760E1,1.744018942E-1,-9.385937452E-1,-1.572976820E-2
1.499759750E1,2.415970266E-1,-1.011286616E0,3.086394370E-1
1.500734740E1,2.977965772E-1,-9.007201195E-1,5.517635942E-1
1.501709729E1,2.281579971E-1,-6.050615907E-1,6.189587116E-1
1.502684719E1,-6.139190868E-2,-1.322522312E-1,4.955640435E-1
1.503659708E1,-4.101957083E-1,3.210094273E-1,2.603811026E-1
1.504634698E1,-6.447677612E-1,6.209440231E-1,-4.123337101E-3
1.505609688E1,-6.765327454E-1,7.455604672E-1,-1.800523996E-1
1.506584677E1,-5.122101307E-1,6.679806113E-1,-2.148716897E-1
1.507559656E1,-1.982256174E-1,4.749473631E-1,-1.647807807E-1
1.508534646E1,1.939495653E-1,2.098320574E-1,-5.360338464E-2
1.509509636E1,5.708531141E-1,-4.612028971E-2,7.956513762E-2
1.510484625E1,8.604030609E-1,-2.031125426E-1,1.913533956E-1
1.511459615E1,1.004567146E0,-2.470948100E-1,2.732092738E-1
1.512434604E1,1.024725676E0,-2.336557806E-1,3.269653618E-1
1.513409594E1,9.520327449E-1,-1.524107605E-1,3.245218992E-1
1.514384583E1,8.054252267E-1,8.857538924E-3,2.512181401E-1
1.515359563E1,6.130027771E-1,2.532034516E-1,1.577558219E-1
1.516334552E1,4.529562294E-1,4.419606626E-1,8.567378670E-2
1.517309542E1,3.552178741E-1,5.287034512E-1,1.527161949E-4
1.518284531E1,3.069595397E-1,5.574141145E-1,-7.498364896E-2
1.519259521E1,2.819140851E-1,5.024362803E-1,-1.299614757E-1
1.520234511E1,2.727511227E-1,3.668242991E-1,-1.641699076E-1
1.521209500E1,2.648098767E-1,1.780670881E-1,-1.751654744E-1
1.522184490E1,2.342666388E-1,-4.856374860E-2,-1.635590494E-1
1.523159469E1,1.689041108E-1,-1.835648715E-1,-1.305723488E-1
1.524134458E1,8.277218044E-2,-2.134972364E-1,-7.925970852E-2
1.525109448E1,2.748891478E-3,-1.805105358E-1,-2.061668597E-2
1.526084438E1,-9.071341902E-2,-9.743293375E-2,3.436114267E-2
1.527059427E1,-2.202167511E-1,2.962694131E-2,4.291325063E-2
1.528034417E1,-3.558287323E-1,1.328630894E-1,3.313941509E-2
1.529009396E1,-4.156934917E-1,1.853974611E-1,2.703076601E-2
1.529984386E1,-3.503309488E-1,1.750127524E-1,8.704823442E-3
1.530959375E1,-1.982256174E-1,1.169806048E-1,-5.543597788E-2
1.531934365E1,-2.229656465E-2,1.740964688E-2,-1.287397593E-1
1.532909354E1,1.316413581E-1,-8.765909821E-2,-1.898262352E-1
1.533884344E1,2.391535640E-1,-1.487455666E-1,-2.240346521E-1
1.534859333E1,2.776380479E-1,-1.572976857E-1,-2.289215773E-1
1.535834313E1,2.654207349E-1,-1.414151937E-1,-1.941022873E-1
1.536809302E1,2.800815105E-1,-1.365282834E-1,-1.275180280E-1
1.537784292E1,3.344484568E-1,-1.322522312E-1,-6.643154472E-2
1.538759281E1,3.930914998E-1,-1.304196268E-1,-3.222311661E-2
1.539734271E1,4.401280880E-1,-7.788526267E-2,-4.077522457E-2
1.540709250E1,4.309650958E-1,4.306596518E-2,-9.147699922E-2
1.541684240E1,3.448331654E-1,1.762344837E-1,-1.653916389E-1
1.542659229E1,2.086103261E-1,2.745837271E-1,-2.582430840E-1
1.543634219E1,5.467239767E-2,3.136790693E-1,-3.364337683E-1
1.544609208E1,-7.971785218E-2,2.360992432E-1,-3.773617148E-1
1.545584198E1,-1.890626550E-1,1.078176349E-1,-3.822486401E-1
1.546559177E1,-2.825249732E-1,-1.252272818E-2,-3.565923274E-1
1.547534167E1,-3.601047993E-1,-1.010981202E-1,-2.741255760E-1
1.548509156E1,-4.144717455E-1,-1.108719558E-1,-1.360701323E-1
1.549484146E1,-4.358520210E-1,-6.566796452E-2,1.786779426E-2
1.550459136E1,-3.833176494E-1,1.191186346E-2,1.687513888E-1
1.551434115E1,-2.678641975E-1,1.120936871E-1,2.823722363E-1
1.552409104E1,-1.517999023E-1,2.348775119E-1,3.306305707E-1
1.553384094E1,-4.550942779E-2,3.344484568E-1,3.031416535E-1
1.554359083E1,5.833758786E-2,3.405571282E-1,2.096793354E-1
1.555334073E1,1.096502244E-1,2.837466896E-1,1.131627038E-1
1.556309052E1,8.643736690E-2,1.811214089E-1,5.940660089E-2
1.557284042E1,3.634645417E-2,6.200277433E-2,3.985892609E-2
1.558259031E1,-2.748891478E-3,-4.306596518E-2,5.574141070E-2
1.559234021E1,-4.917461425E-2,-1.267544478E-1,1.015562713E-1
1.560209000E1,-6.444623321E-2,-1.719584316E-1,1.601992846E-1
1.561183990E1,-1.985310577E-2,-1.572976857E-1,2.078467458E-1
1.562158979E1,7.544180006E-2,-1.133154184E-1,2.432768941E-1
1.563133969E1,1.792888194E-1,-4.673115537E-2,2.438877672E-1
1.564108958E1,2.354883701E-1,3.207040206E-2,2.121227980E-1
1.565083938E1,1.970038861E-1,6.566796452E-2,1.534797698E-1
1.566058927E1,1.194240674E-1,7.483093441E-2,8.750637621E-2
1.567033917E1,4.062250629E-2,5.589412898E-2,7.651081681E-2
1.568008906E1,-3.512472659E-2,1.557705179E-2,1.101083755E-1
1.568983886E1,-6.627883017E-2,-1.557705179E-2,1.278234571E-1
1.569958875E1,-2.657261863E-2,-3.207040206E-2,9.239330143E-2
1.570933865E1,5.222893879E-2,-4.367683083E-2,4.169152305E-2
1.571908854E1,1.658497900E-1,-7.666353136E-2,-7.177661173E-3
1.572883844E1,2.703076601E-1,-1.224783882E-1,-2.306014486E-2
1.573858823E1,3.149007857E-1,-2.092211843E-1,-1.939495653E-2
1.574833813E1,2.776380479E-1,-3.002400398E-1,-4.123337101E-3
1.575808802E1,1.627954692E-1,-3.637699783E-1,1.420260593E-2
1.576783792E1,5.650499091E-2,-3.918697536E-1,-1.679878100E-3
1.577758771E1,3.512472659E-2,-3.484983444E-1,-4.077522457E-2
1.578733761E1,1.114828214E-1,-1.939495653E-1,-4.688387364E-2
1.579708750E1,2.189950198E-1,-3.054323897E-4,-2.428187430E-2
1.580683740E1,3.619373739E-1,1.847866029E-1,1.359174121E-2
1.581658719E1,5.158752799E-1,2.971857190E-1,2.519817278E-2
1.582633708E1,6.478220820E-1,2.348775119E-1,-1.817322709E-2
1.583608698E1,6.899717450E-1,1.035415828E-1,-1.091920808E-1
1.584583688E1,5.794052482E-1,9.468403645E-3,-1.849393100E-1
1.585558667E1,3.362810612E-1,-1.496618707E-2,-2.338084877E-1
1.586533656E1,4.917461425E-2,3.329212964E-2,-2.619082630E-1
1.587508646E1,-1.689041108E-1,8.949168772E-2,-2.124282271E-1
1.588483625E1,-2.122755051E-1,1.249218509E-1,-8.048143238E-2
1.589458615E1,-1.120936871E-1,1.585194170E-1,9.117157012E-2
1.590433604E1,6.139190868E-2,2.214384824E-1,2.677114904E-1
1.591408594E1,2.513708472E-1,2.318231910E-1,4.179842174E-1
1.592383573E1,3.711003661E-1,1.579085439E-1,5.175551772E-1
1.593358563E1,3.527744114E-1,3.451386094E-2,5.352702737E-1
1.594333552E1,1.970038861E-1,-2.229656465E-2,5.065596104E-1
1.595308531E1,-8.246674202E-3,-4.917461425E-2,4.821250141E-1
1.596283521E1,-1.438586563E-1,-7.605266571E-2,4.473057389E-1
1.597258510E1,-9.132428467E-2,-7.422006875E-2,4.393644929E-1
1.598233500E1,1.114828214E-1,-5.161807314E-2,4.595230222E-1
1.599208479E1,3.753764033E-1,8.857538924E-3,4.735729098E-1
1.600183469E1,5.696313977E-1,8.582650125E-2,5.071704984E-1
1.601158458E1,5.897899270E-1,1.985310577E-2,5.468766689E-1
1.602133438E1,3.845393658E-1,-1.634063274E-1,4.839576185E-1
1.603108427E1,1.007926930E-2,-2.611446977E-1,2.878700197E-1
1.604083417E1,-3.949240744E-1,-2.935205400E-1,1.725693047E-2
1.605058406E1,-6.160571575E-1,-4.468475878E-1,-2.484692484E-1
1.606033386E1,-4.297433794E-1,-6.380482912E-1,-3.449858725E-1
1.607008375E1,5.650499091E-2,-7.522799969E-1,-2.032652497E-1
1.607983365E1,6.301070452E-1,-8.133664727E-1,2.275471389E-2
1.608958344E1,9.746347666E-1,-6.123919487E-1,2.817613780E-1
1.609933333E1,7.987056971E-1,-2.171624303E-1,5.316050649E-1
1.610908323E1,1.267544478E-1,3.155116439E-1,6.543889046E-1
1.611883302E1,-8.011491299E-1,8.439096808E-1,6.488910913E-1
1.612858292E1,-1.638033867E0,1.197600365E0,5.529853702E-1
1.613833281E1,-2.076024055E0,1.262962937E0,2.677114904E-1
1.614808261E1,-1.896429658E0,9.214895368E-1,-1.843284518E-1
1.615783250E1,-1.046716809E0,4.062250629E-2,-6.070469022E-1
1.616758240E1,3.008508980E-1,-9.392045736E-1,-6.559160352E-1
1.617733219E1,1.673464060E0,-1.412624836E0,3.817904973E-3
1.618708208E1,2.458425283E0,-1.793804407E0,7.551816106E-1
1.619683198E1,2.556163788E0,-1.675907493E0,1.137582898E0
1.620658177E1,1.875660300E0,-1.033888698E0,1.124143958E0
1.621633167E1,4.957167804E-1,-2.984074354E-1,9.097303748E-1
1.622608156E1,-8.823941946E-1,2.806923687E-1,7.240274549E-1
1.623583136E1,-1.750432968E0,4.560105503E-1,4.631882310E-1
1.624558125E1,-1.959348798E0,2.568686306E-1,-1.939495653E-2
1.625533115E1,-1.650251150E0,-5.039634556E-2,-5.447386503E-1
1.626508094E1,-9.899063706E-1,-3.692677617E-1,-8.116865754E-1
1.627483083E1,-1.435532235E-2,-5.305360556E-1,-7.206677198E-1
1.628458073E1,1.102305532E0,-4.792234302E-1,-4.268417656E-1
1.629433052E1,1.912923098E0,-2.837466896E-1,-7.788525894E-3
1.630408042E1,2.063195705E0,2.067777216E-1,3.764454126E-1
1.631383031E1,1.495702386E0,8.194751143E-1,5.743656158E-1
1.632358010E1,4.352411628E-1,1.201876402E0,5.926915407E-1
1.633333000E1,-4.602866173E-1,1.066875339E0,4.772381186E-1
1.634307979E1,-7.938187718E-1,5.317577720E-1,2.457203567E-1
1.635282969E1,-5.623010397E-1,-2.220493406E-1,-1.342375278E-1
1.636257958E1,-1.191186346E-2,-8.542944193E-1,-3.962985277E-1
1.637232938E1,4.957167804E-1,-1.160337687E0,-4.506655037E-1
1.638207927E1,8.286380768E-1,-1.157283306E0,-3.596466482E-1
1.639182906E1,1.094975114E0,-6.441569328E-1,-1.867718995E-1
1.640157896E1,1.278845429E0,-1.756236255E-1,3.741546720E-2
1.641132886E1,9.489784241E-1,-2.251036763E-1,2.402225733E-1
1.642107865E1,3.271180987E-1,-1.560759544E-1,3.581194878E-1
1.643082854E1,-3.930914998E-1,-5.222893879E-2,1.889099330E-1
1.644057844E1,-8.292489648E-1,-8.521563560E-2,-2.386954129E-1
1.645032823E1,-6.936369538E-1,-2.507599890E-1,-5.447386503E-1
1.646007813E1,-2.751945853E-1,-3.888154328E-1,-6.076577306E-1
1.646982792E1,1.603520066E-1,-4.046979249E-1,-5.838339925E-1
1.647957781E1,6.276635528E-1,-4.297433794E-1,-4.097375572E-1
1.648932771E1,1.115744472E0,-3.955349326E-1,-9.621120058E-3
1.649907750E1,1.372918606E0,-2.049451321E-1,3.306305707E-1
1.650882740E1,1.182328820E0,6.811141968E-2,5.132791400E-1
1.651857719E1,5.342012644E-1,4.187478125E-1,5.138899684E-1
1.652832708E1,-3.051269650E-1,7.009673119E-1,3.495673835E-1
1.653807698E1,-9.025527239E-1,5.842921734E-1,1.699731201E-1
1.654782677E1,-1.043051600E0,2.403752953E-1,2.947422490E-2
1.655757667E1,-7.449495792E-1,-1.175914705E-1,1.237001177E-2
1.656732646E1,-2.696968019E-1,-2.415970266E-1,1.876882017E-1
1.657707636E1,1.731801629E-1,6.994401664E-2,4.796815813E-1
1.658682625E1,5.641336441E-1,5.690205693E-1,8.510873318E-1
1.659657604E1,9.984585047E-1,9.954041839E-1,1.115591764E0
1.660632594E1,1.325271130E0,1.173776627E0,1.046564102E0
1.661607573E1,1.216537237E0,1.009454012E0,6.299542785E-1
1.662582563E1,9.049961567E-1,4.761691093E-1,-1.878409274E-2
1.663557542E1,6.013963819E-1,-1.127045527E-1,-5.716167092E-1
1.664532531E1,2.128863782E-1,-5.555815101E-1,-8.190169334E-1
1.665507521E1,-7.910698652E-2,-8.927788734E-1,-6.516399980E-1
1.666482500E1,8.643736690E-2,-8.903354406E-1,-2.270889878E-1
1.667457490E1,5.757400393E-1,-4.633409381E-1,2.701549530E-1
1.668432469E1,1.145066023E0,7.299833745E-2,6.354520917E-1
1.669407458E1,1.545182467E0,3.588830531E-1,7.081450224E-1
1.670382438E1,1.697287798E0,1.878409237E-1,3.923279047E-1
1.671357427E1,1.678350925E0,-6.322450191E-2,-1.146898642E-1
1.672332406E1,1.510363221E0,-2.984074354E-1,-5.007563829E-1
1.673307396E1,1.334434152E0,-5.067123175E-1,-7.786998749E-1
1.674282375E1,1.090088248E0,-5.525271893E-1,-9.271399975E-1
1.675257365E1,7.296779752E-1,-4.437932670E-1,-8.391754627E-1
1.676232354E1,4.663952589E-1,-2.061668634E-1,-6.125446558E-1
1.677207333E1,3.814850450E-1,1.163697392E-1,-3.614792228E-1
1.678182323E1,4.755582213E-1,4.266890585E-1,-7.376192510E-2
1.679157302E1,6.973021626E-1,5.555815101E-1,1.302669197E-1
1.680132292E1,8.988875151E-1,4.462367296E-1,6.918043643E-2
1.681107271E1,9.599739909E-1,2.055560052E-1,-1.824958473E-1
1.682082260E1,8.958331943E-1,5.283980444E-2,-4.366155863E-1
1.683057240E1,6.435460448E-1,-4.550942779E-2,-6.394227147E-1
1.684032229E1,3.814850450E-1,-1.230892539E-1,-7.713695168E-1
1.685007208E1,3.057378232E-1,-2.183841616E-1,-8.061888218E-1
1.685982198E1,3.582721949E-1,-4.175260663E-1,-7.267763615E-1
1.686957177E1,4.169152081E-1,-5.299251676E-1,-5.740602016E-1
1.687932167E1,5.445859432E-1,-3.845393658E-1,-3.767508566E-1
1.688907146E1,1.002734542E0,-2.629773021E-1,-1.324049383E-1
1.689882136E1,1.476154685E0,-1.279761642E-1,2.947422490E-2
1.690857115E1,1.474322200E0,-2.840521187E-2,4.413498193E-2
1.691832104E1,1.054658055E0,1.261435747E-1,-9.010255337E-3
1.692807083E1,3.289506733E-1,3.539961278E-1,-9.758564830E-2
1.693782073E1,-5.384773016E-1,5.378664136E-1,-1.806632578E-1
1.694757052E1,-1.403461814E0,3.656025827E-1,-3.144426346E-1
1.695732042E1,-1.819460750E0,2.214384824E-1,-3.205513060E-1
1.696707021E1,-1.698509574E0,-9.193515033E-2,-1.568395346E-1
1.697682010E1,-1.188437462E0,-3.717112243E-1,3.497200832E-2
1.698656990E1,-4.944950342E-1,-5.213730931E-1,2.096793354E-1
1.699631979E1,1.377500147E-1,-6.374374032E-1,3.709476292E-1
1.700606958E1,5.812378526E-1,-5.885682106E-1,3.642281294E-1
1.701581948E1,7.254019380E-1,-3.203985691E-1,2.109010667E-1
1.702556927E1,5.726857185E-1,1.679878123E-2,8.811724186E-2
1.703531917E1,1.542433500E-1,3.069595397E-1,3.130681813E-2
1.704506896E1,-4.889972508E-1,4.046979249E-1,1.908952370E-2
1.705481886E1,-1.126740098E0,4.108065665E-1,6.979130208E-2
1.706456865E1,-1.623373151E0,4.083631039E-1,1.620318890E-1
1.707431854E1,-1.906814456E0,3.686569035E-1,2.475529462E-1
1.708406833E1,-1.862221241E0,2.941313982E-1,2.701549530E-1
1.709381813E1,-1.430339932E0,1.896735132E-1,3.104720116E-1
1.710356802E1,-7.370083332E-1,1.435532235E-2,4.051560760E-1
1.711331781E1,5.222893879E-2,-1.133154184E-1,4.106538594E-1
1.712306771E1,6.441569328E-1,-1.701258421E-1,2.585485280E-1
1.713281750E1,8.170316219E-1,-2.086103261E-1,3.313941509E-2
1.714256740E1,6.087267399E-1,-2.165515572E-1,-1.696676910E-1
1.715231719E1,1.878409237E-1,-1.640172005E-1,-3.022253513E-1
1.716206708E1,-2.947422564E-1,-1.175914705E-1,-3.462076187E-1
1.717181688E1,-7.425061464E-1,-3.695731983E-2,-2.887863219E-1
1.718156677E1,-1.082757831E0,7.788526267E-2,-1.861610413E-1
1.719131656E1,-1.272125959E0,1.200349256E-1,-6.093376130E-2
1.720106636E1,-1.207374215E0,1.139262840E-1,5.085449293E-2
1.721081625E1,-9.025527239E-1,9.498947114E-2,1.162170246E-1
1.722056604E1,-5.952877402E-1,-5.803215317E-3,1.143844277E-1
1.723031594E1,-4.199695289E-1,-1.102610901E-1,5.574141070E-2
1.724006573E1,-3.356702030E-1,-2.122755051E-1,6.872228812E-3
1.724981563E1,-2.568686306E-1,-2.684750557E-1,-3.512472380E-3
1.725956542E1,-1.945604384E-1,-1.762344837E-1,-1.206457894E-2
1.726931521E1,-3.130682111E-1,4.367683083E-2,-2.855792828E-2
1.727906510E1,-6.203331947E-1,2.587012351E-1,-7.987056673E-2
1.728881490E1,-9.367611408E-1,5.048797131E-1,-1.824958473E-1
1.729856479E1,-1.137735605E0,6.624828577E-1,-2.820668221E-1
1.730831458E1,-1.132848740E0,6.692023873E-1,-3.156643808E-1
1.731806448E1,-8.671225309E-1,5.122101307E-1,-2.209803313E-1
1.732781427E1,-4.444041252E-1,2.727511227E-1,-4.566214234E-2
1.733756406E1,-1.010981202E-1,-8.338304609E-2,1.589775532E-1
1.734731396E1,6.200277433E-2,-3.833176494E-1,3.055851161E-1
1.735706375E1,3.817904741E-2,-4.456258714E-1,3.459021747E-1
1.736681365E1,-1.230892539E-1,-3.149007857E-1,2.988655865E-1
1.737656344E1,-1.811214089E-1,8.888082206E-2,2.041815519E-1
1.738631323E1,-1.127045527E-1,4.883863926E-1,7.223475724E-2
1.739606313E1,-5.894844979E-2,6.942478418E-1,-9.208786488E-2
1.740581292E1,-5.406153202E-2,7.113520503E-1,-1.904370934E-1
1.741556281E1,-1.182023361E-1,5.378664136E-1,-1.299614757E-1
1.742531261E1,-2.794706225E-1,2.373209596E-1,3.619373962E-2
1.743506240E1,-4.786125422E-1,-1.499672979E-1,2.225074917E-1
1.744481229E1,-6.661480665E-1,-2.990183234E-1,3.825540543E-1
1.745456208E1,-8.713986278E-1,-2.238819450E-1,4.393644929E-1
1.746431188E1,-1.096807718E0,-1.004872546E-1,2.249509543E-1
1.747406177E1,-1.292284489E0,1.597411335E-1,-4.321868345E-2
1.748381156E1,-1.383303285E0,5.470294356E-1,-2.301433086E-1
1.749356146E1,-1.336266756E0,9.257655740E-1,-3.052796721E-1
1.750331125E1,-1.111468434E0,1.091920853E0,-2.686277926E-1
1.751306104E1,-6.753110290E-1,1.044273376E0,-1.055268943E-1
1.752281094E1,-1.652389169E-1,7.730493546E-1,7.162389904E-2
1.753256073E1,3.014617562E-1,2.629773021E-1,1.797469556E-1
1.754231052E1,6.349939108E-1,-2.379318327E-1,1.931859851E-1
1.755206042E1,8.310815096E-1,-5.720748901E-1,1.113301069E-1
1.756181021E1,8.878919482E-1,-6.887500286E-1,1.985310577E-3
1.757156000E1,8.329141140E-1,-6.655371785E-1,-7.437278330E-2
1.758130990E1,6.527090073E-1,-4.602866173E-1,-1.427896470E-1
1.759105969E1,2.568686306E-1,-3.084867075E-2,-2.295324355E-1
1.760080958E1,-3.228420317E-1,4.138608873E-1,-3.669770062E-1
1.761055938E1,-8.860593438E-1,6.887500286E-1,-4.769326746E-1
1.762030917E1,-1.198211312E0,7.852666974E-1,-5.331322551E-1
1.763005906E1,-1.157283306E0,7.846558094E-1,-5.471821427E-1
1.763980886E1,-8.915571570E-1,6.020072699E-1,-5.331322551E-1
1.764955865E1,-4.071413875E-1,1.902843714E-1,-3.700313270E-1
1.765930854E1,2.043342739E-1,-1.609628648E-1,-2.582430840E-1
1.766905833E1,6.905826330E-1,-3.277289569E-1,-2.881754637E-1
1.767880813E1,9.275981784E-1,-3.100138903E-1,-3.596466482E-1
1.768855802E1,9.715804458E-1,-2.635881603E-1,-4.201222658E-1
1.769830781E1,8.909462690E-1,-2.843575478E-1,-4.689914286E-1
1.770805760E1,6.594285369E-1,-2.941313982E-1,-5.044215918E-1
1.771780750E1,2.385426909E-1,-2.428187430E-1,-5.160280466E-1
1.772755729E1,-3.436114490E-1,-1.719584316E-1,-5.306887627E-1
1.773730708E1,-9.398154616E-1,-1.163697392E-1,-5.477929711E-1
1.774705688E1,-1.402850986E0,1.527161920E-3,-6.058251262E-1
1.775680677E1,-1.622151375E0,7.238747925E-2,-6.852375865E-1
1.776655656E1,-1.580001712E0,7.238747925E-2,-7.322741747E-1
1.777630636E1,-1.318551660E0,-2.351829410E-2,-7.194460034E-1
1.778605625E1,-9.153808951E-1,-2.257145345E-1,-6.241511106E-1
1.779580604E1,-4.718930423E-1,-4.828886092E-1,-4.286743701E-1
1.780555583E1,-7.055488229E-2,-6.502655745E-1,-1.721111536E-1
1.781530573E1,2.110537887E-1,-7.113520503E-1,8.506292105E-2
1.782505552E1,2.806923687E-1,-6.979129910E-1,2.719875574E-1
1.783480531E1,4.306596518E-2,-5.317577720E-1,3.630063832E-1
1.784455510E1,-4.798342884E-1,-2.733619809E-1,3.825540543E-1
1.785430500E1,-1.127350926E0,-3.207040206E-2,3.874409795E-1
1.786405479E1,-1.671631455E0,9.621120244E-2,3.031416535E-1
1.787380458E1,-1.805410862E0,1.557705179E-2,1.339320987E-1
1.788355448E1,-1.307556033E0,-2.342666388E-1,8.093958721E-3
1.789330427E1,-2.385426909E-1,-6.294961572E-1,-1.328630932E-2
1.790305406E1,8.921679854E-1,-8.909462690E-1,7.528908551E-2
1.791280386E1,1.544571638E0,-8.921679854E-1,2.139553875E-1
1.792255375E1,1.569006205E0,-7.272345424E-1,2.952004075E-1
1.793230354E1,1.186604857E0,-5.091558099E-1,3.031416535E-1
1.794205333E1,5.726857185E-1,-3.533852696E-1,3.239110410E-1
1.795180313E1,-1.817322671E-1,-2.770271897E-1,3.342957497E-1
1.796155302E1,-9.013310075E-1,-1.530216336E-1,2.616028488E-1
1.797130281E1,-1.372918606E0,-3.756818548E-2,9.972367436E-2
1.798105261E1,-1.496313334E0,-5.803215317E-3,-9.453132749E-2
1.799080240E1,-1.284343243E0,-5.192350596E-3,-2.441931963E-1
1.800055229E1,-8.524618149E-1,-1.328630894E-1,-3.272708058E-1
1.801030208E1,-2.806923687E-1,-3.124573231E-1,-3.901898861E-1
1.802005188E1,3.075704277E-1,-4.382954836E-1,-4.494437575E-1
1.802980167E1,7.596103549E-1,-4.395172000E-1,-5.001455545E-1
1.803955156E1,9.611957073E-1,-3.368919194E-1,-5.074759126E-1
1.804930136E1,9.043853283E-1,-1.915061027E-1,-4.353938699E-1
1.805905115E1,6.844739914E-1,-2.171624303E-1,-3.523162603E-1
1.806880094E1,4.224129915E-1,-2.666424811E-1,-3.321577311E-1
1.807855073E1,1.957821548E-1,-2.513708472E-1,-3.455967605E-1
1.808830063E1,4.306596518E-2,-2.220493406E-1,-3.413206935E-1
1.809805042E1,-5.650499091E-2,-2.208276242E-1,-3.193295598E-1
1.810780021E1,-1.548542231E-1,-2.073885947E-1,-2.942841053E-1
1.811755010E1,-3.026835024E-1,-1.579085439E-1,-2.900080681E-1
1.812729990E1,-4.926624298E-1,-5.589412898E-2,-3.346011937E-1
1.813704969E1,-6.575959325E-1,6.078104675E-2,-3.993528485E-1
1.814679948E1,-7.082977295E-1,1.371391416E-1,-4.335612655E-1
1.815654927E1,-6.441569328E-1,2.189950198E-1,-3.920224607E-1
1.816629917E1,-5.568032265E-1,2.758054435E-1,-2.906189263E-1
1.817604896E1,-5.018253922E-1,2.794706225E-1,-1.666133702E-1
1.818579875E1,-5.299251676E-1,2.556469142E-1,-5.543597788E-2
1.819554854E1,-6.105593443E-1,2.678641975E-1,2.275471389E-2
1.820529833E1,-6.679806113E-1,2.654207349E-1,9.728021920E-2
1.821504823E1,-6.600393653E-1,2.281579971E-1,1.553123742E-1
1.822479802E1,-6.105593443E-1,2.165515572E-1,1.870773435E-1
1.823454781E1,-5.763509274E-1,2.299905866E-1,2.121227980E-1
1.824429760E1,-6.264418364E-1,2.232710719E-1,1.583666950E-1
1.825404740E1,-7.431169748E-1,2.415970266E-1,1.114828233E-2
1.826379729E1,-8.536835313E-1,2.532034516E-1,-1.146898642E-1
1.827354708E1,-8.280271888E-1,1.884517819E-1,-1.873827726E-1
1.828329688E1,-5.421425104E-1,7.422006875E-2,-1.928805560E-1
1.829304667E1,-9.193515033E-2,-9.865466505E-2,-1.537852138E-1
1.830279646E1,3.075704277E-1,-3.100138903E-1,-1.036942974E-1
1.831254636E1,4.541779757E-1,-4.938841760E-1,-5.238165334E-2
1.832229615E1,3.539961278E-1,-5.158752799E-1,2.596175298E-3
1.833204594E1,9.437860548E-2,-4.700604379E-1,1.847865991E-2
1.834179573E1,-1.560759544E-1,-3.998109996E-1,3.207040019E-3
1.835154552E1,-2.868010104E-1,-2.739728391E-1,-1.511890348E-2
1.836129531E1,-2.843575478E-1,-1.218675226E-1,-3.466657549E-2
1.837104521E1,-1.469129771E-1,-2.138026757E-3,-4.734201822E-3
1.838079500E1,4.734202102E-2,6.261363626E-2,1.039997265E-1
1.839054479E1,2.532034516E-1,1.291978955E-1,2.115119249E-1
1.840029458E1,4.156934917E-1,1.682932526E-1,2.652680278E-1
1.841004438E1,4.963276386E-1,1.737910360E-1,2.878700197E-1
1.841979417E1,4.780016840E-1,1.805105358E-1,2.939786613E-1
1.842954406E1,3.906480372E-1,1.878409237E-1,2.762635946E-1
1.843929386E1,2.892444730E-1,1.970038861E-1,2.487746775E-1
1.844904365E1,2.067777216E-1,1.945604384E-1,2.200640440E-1
1.845879344E1,1.658497900E-1,1.792888194E-1,1.980729103E-1
1.846854323E1,1.444695145E-1,1.554650813E-1,2.011272311E-1
1.847829302E1,1.200349256E-1,1.157588735E-1,2.115119249E-1
1.848804281E1,1.249218509E-1,7.483093441E-2,2.084576041E-1
1.849779271E1,1.676823795E-1,3.756818548E-2,1.907425225E-1
1.850754250E1,2.220493406E-1,-3.359756200E-3,1.724165827E-1
1.851729229E1,2.464839369E-1,1.374445762E-2,1.547015011E-1
1.852704208E1,2.226602137E-1,5.772672221E-2,1.382081509E-1
1.853679188E1,1.860083193E-1,9.865466505E-2,1.253799945E-1
1.854654167E1,1.524107605E-1,1.267544478E-1,1.339320987E-1
1.855629146E1,9.437860548E-2,1.463021189E-1,1.516471803E-1
1.856604125E1,1.557705179E-2,1.615737379E-1,1.614210159E-1
1.857579104E1,-4.306596518E-2,1.615737379E-1,1.693622619E-1
1.858554094E1,-4.917461425E-2,1.469129771E-1,1.644753367E-1
1.859529073E1,-1.435532235E-2,1.359174103E-1,1.504254490E-1
1.860504052E1,3.512472659E-2,1.426369250E-1,1.314886510E-1
1.861479031E1,9.132428467E-2,1.487455666E-1,1.192713454E-1
1.862454010E1,1.444695145E-1,1.200349256E-1,1.162170246E-1
1.863428990E1,1.591302752E-1,8.949168772E-2,1.027780026E-1
1.864403969E1,1.267544478E-1,7.544180006E-2,7.101303339E-2
1.865378948E1,7.544180006E-2,8.949168772E-2,5.085449293E-2
1.866353927E1,6.261363626E-2,9.926552325E-2,6.062832847E-2
1.867328917E1,7.299833745E-2,8.521563560E-2,8.811724186E-2
1.868303896E1,6.566796452E-2,6.627883017E-2,9.544762224E-2
1.869278875E1,7.422006875E-2,6.139190868E-2,7.528908551E-2
1.870253854E1,8.826996386E-2,8.032871783E-2,4.963276163E-2
1.871228833E1,1.004872546E-1,9.132428467E-2,2.825249545E-2
1.872203813E1,1.334739476E-1,1.004872546E-1,-1.389717404E-2
1.873178792E1,1.676823795E-1,1.127045527E-1,-5.360338464E-2
1.874153771E1,1.744018942E-1,1.023198515E-1,-8.903354406E-2
1.875128750E1,1.536324918E-1,8.949168772E-2,-1.262962967E-1
1.876103729E1,9.926552325E-2,7.727439702E-2,-1.635590494E-1
1.877078708E1,4.550942779E-2,6.627883017E-2,-1.989891976E-1
1.878053688E1,1.802051067E-2,3.756818548E-2,-2.160934210E-1
1.879028667E1,3.970621154E-3,1.313359290E-2,-2.032652497E-1
1.880003646E1,-1.191186346E-2,-5.192350596E-3,-1.537852138E-1
1.880978636E1,-1.740964688E-2,-1.863137633E-2,-8.964440972E-2
1.881953615E1,9.162971983E-4,-3.329212964E-2,-2.000582218E-2
1.882928594E1,3.084867075E-2,-4.184423760E-2,4.352411628E-2
1.883903573E1,4.550942779E-2,-2.290742844E-2,7.895427197E-2
1.884878552E1,3.268126398E-2,1.679878123E-2,9.544762224E-2
1.885853531E1,7.024944760E-3,5.345066637E-2,8.750637621E-2
1.886828511E1,-2.229656465E-2,8.704823256E-2,5.085449293E-2
1.887803490E1,-5.406153202E-2,1.072067693E-1,-3.512472380E-3
1.888778469E1,-6.811141968E-2,1.151480079E-1,-7.009673119E-2
1.889753448E1,-6.078104675E-2,1.041524485E-1,-1.195767820E-1
1.890728427E1,-4.550942779E-2,6.994401664E-2,-1.434005052E-1
1.891703406E1,-2.535088919E-2,2.290742844E-2,-1.488982886E-1
1.892678386E1,-9.162971983E-4,-2.290742844E-2,-1.311832070E-1
1.893653365E1,5.192350596E-3,-4.306596518E-2,-1.043051630E-1
1.894628344E1,4.581485875E-3,-4.734202102E-2,-6.887500733E-2
1.895603323E1,1.863137633E-2,-3.573558852E-2,-2.794706449E-2
1.896578302E1,5.406153202E-2,-2.474002354E-2,1.175914705E-2
1.897553281E1,9.926552325E-2,-2.168569900E-2,2.886336111E-2
1.898528261E1,1.298087686E-1,2.138026757E-3,2.397644334E-2
1.899503240E1,1.243109852E-1,2.718348242E-2,6.872228812E-3
1.900478219E1,8.277218044E-2,5.161807314E-2,-3.039052337E-2
1.901453198E1,3.084867075E-2,8.093958348E-2,-8.536835015E-2
1.902428177E1,3.970621154E-3,9.193515033E-2,-1.354592592E-1
1.903403156E1,2.474002354E-2,6.200277433E-2,-1.598938555E-1
1.904378136E1,9.804379940E-2,3.970621154E-3,-1.684459597E-1
1.905353115E1,1.737910360E-1,-5.345066637E-2,-1.660024971E-1
1.906328094E1,2.092211843E-1,-8.093958348E-2,-1.446222365E-1
1.907303073E1,2.031125426E-1,-9.743293375E-2,-9.453132749E-2
1.908278052E1,1.921169758E-1,-1.182023361E-1,-4.627300799E-2
1.909253031E1,1.994473487E-1,-1.102610901E-1,1.359174121E-2
1.910228011E1,2.122755051E-1,-1.010981202E-1,7.223475724E-2
1.911202990E1,2.177732885E-1,-9.437860548E-2,1.217148080E-1
1.912177969E1,2.269362658E-1,-9.254601598E-2,1.510363221E-1
1.913152948E1,2.403752953E-1,-9.926552325E-2,1.479819864E-1
1.914127927E1,2.556469142E-1,-1.102610901E-1,1.253799945E-1
1.915102906E1,2.641990185E-1,-1.127045527E-1,8.811724186E-2
1.916077886E1,2.794706225E-1,-9.621120244E-2,4.963276163E-2
1.917052865E1,3.094030023E-1,-8.582650125E-2,2.580903657E-2
1.918027844E1,3.643808365E-1,-8.155044913E-2,2.458730713E-2
1.919002823E1,4.437932670E-1,-7.971785218E-2,3.802633286E-2
1.919977802E1,5.158752799E-1,-1.004872546E-1,6.246092543E-2
1.920952781E1,5.482511520E-1,-1.395826042E-1,9.605848789E-2
1.921927761E1,5.225948095E-1,-1.866191924E-1,9.850194305E-2
1.922902740E1,4.444041252E-1,-2.110537887E-1,6.429351866E-2
1.923877719E1,3.252854943E-1,-2.018908113E-1,1.603520103E-2
1.924852698E1,2.122755051E-1,-1.878409237E-1,-2.794706449E-2
1.925827677E1,1.371391416E-1,-1.701258421E-1,-6.704241037E-2
1.926802656E1,9.315688163E-2,-1.408043355E-1,-8.903354406E-2
1.927777636E1,6.200277433E-2,-1.035415828E-1,-7.925970852E-2
1.928752615E1,4.001164436E-2,-5.772672221E-2,-6.582067907E-2
1.929727594E1,4.489856213E-2,3.970621154E-3,-5.849030241E-2
1.930702563E1,7.116574794E-2,5.283980444E-2,-3.588830680E-2
1.931677542E1,5.161807314E-2,5.406153202E-2,-4.581485991E-4
1.932652521E1,-2.168569900E-2,2.474002354E-2,3.008509055E-2
1.933627500E1,-1.023198515E-1,9.162971983E-4,2.519817278E-2
1.934602479E1,-1.853974611E-1,-1.435532235E-2,2.596175298E-3
1.935577458E1,-2.605338395E-1,-4.917461425E-2,-4.444041103E-2
1.936552438E1,-2.770271897E-1,-9.010255337E-2,-1.000291109E-1
1.937527417E1,-1.970038861E-1,-1.059850380E-1,-1.195767820E-1
1.938502396E1,-4.856374860E-2,-5.100720748E-2,-5.421425030E-2
1.939477375E1,1.469129771E-1,3.084867075E-2,1.394298822E-1
1.940452354E1,4.059196413E-1,1.426369250E-1,4.088212550E-1
1.941427333E1,6.637045741E-1,2.910770774E-1,6.977602839E-1
