"Time (s)","Gyroscope x (rad/s)","Gyroscope y (rad/s)","Gyroscope z (rad/s)"
5.567556000E-3,-3.410152495E-1,-5.406153202E-1,4.337139800E-2
1.531797300E-2,-3.649916947E-1,-4.987711012E-1,3.619373962E-2
2.506838900E-2,-3.772090077E-1,-3.692677617E-1,3.130681813E-2
3.481870200E-2,-3.582721949E-1,-1.646280587E-1,3.008509055E-2
4.456911900E-2,-2.984074354E-1,1.740964688E-2,1.970038936E-2
5.431953500E-2,-1.896735132E-1,1.450803876E-1,-3.512472380E-3
6.406995200E-2,-5.772672221E-2,2.446513474E-1,-2.855792828E-2
7.382036900E-2,6.322450191E-2,2.709185183E-1,-3.405570984E-2
8.357068100E-2,1.469129771E-1,2.232710719E-1,-2.000582218E-2
9.332109800E-2,1.634063274E-1,1.359174103E-1,3.130681813E-2
1.030715140E-1,1.414151937E-1,3.145953640E-2,1.290451884E-1
1.128219310E-1,1.004872546E-1,-6.139190868E-2,2.451094985E-1
1.225723480E-1,3.695731983E-2,-9.865466505E-2,3.397935331E-1
1.323226600E-1,-5.772672221E-2,-3.634645417E-2,3.575085998E-1
1.420730770E-1,-1.921169758E-1,1.206457913E-1,2.750418782E-1
1.518234940E-1,-3.313941360E-1,2.953531146E-1,1.400407553E-1
1.615739100E-1,-4.199695289E-1,3.943132162E-1,1.053741761E-2
1.713242230E-1,-4.480693042E-1,4.211912751E-1,-1.079703495E-1
1.810746390E-1,-4.480693042E-1,4.297433794E-1,-2.044869810E-1
1.908250560E-1,-4.266890585E-1,4.022544622E-1,-2.674060464E-1
2.005754730E-1,-3.741546869E-1,2.892444730E-1,-2.637408674E-1
2.103257850E-1,-2.764163017E-1,1.285870373E-1,-1.482874304E-1
2.200762020E-1,-1.646280587E-1,1.802051067E-2,1.481347065E-2
2.298266190E-1,-7.727439702E-2,-4.612028971E-2,1.595884264E-1
2.395770350E-1,5.803215317E-3,-7.177661359E-2,2.341139317E-1
2.493273480E-1,8.765909821E-2,-8.643736690E-2,2.047924101E-1
2.590777640E-1,1.444695145E-1,-9.071341902E-2,1.284343153E-1
2.688281810E-1,1.719584316E-1,-8.216131479E-2,7.406735420E-2
2.785785980E-1,1.945604384E-1,-6.994401664E-2,6.612611562E-2
2.883289100E-1,2.342666388E-1,-8.460476995E-2,6.123919412E-2
2.980793270E-1,2.898553312E-1,-1.652389169E-1,2.458730713E-2
3.078297440E-1,3.381136656E-1,-2.977965772E-1,-2.855792828E-2
3.175801600E-1,3.509418070E-1,-4.224129915E-1,-8.414662629E-2
3.273304730E-1,2.935205400E-1,-4.676169753E-1,-1.409570426E-1
3.370808890E-1,1.279761642E-1,-3.772090077E-1,-2.081521749E-1
3.468313060E-1,-1.188132018E-1,-1.737910360E-1,-2.557996213E-1
3.565816190E-1,-3.851502538E-1,5.955931544E-2,-2.771798968E-1
3.663320350E-1,-6.618719697E-1,3.045161068E-1,-2.637408674E-1
3.760824520E-1,-8.659008145E-1,4.621191919E-1,-2.472475171E-1
3.858328690E-1,-7.406735420E-1,4.205803871E-1,-2.674060464E-1
3.955831810E-1,-3.014617562E-1,3.032943606E-1,-3.022253513E-1
4.053335980E-1,1.420260668E-1,1.304196268E-1,-2.674060464E-1
4.150840140E-1,3.399462402E-1,-1.023198515E-1,-6.765327603E-2
4.248343270E-1,3.399462402E-1,-2.428187430E-1,2.383899838E-1
4.345847440E-1,3.222311735E-1,-1.737910360E-1,4.821250141E-1
4.443351600E-1,4.071413875E-1,5.955931544E-2,5.169443488E-1
4.540854730E-1,5.396990180E-1,3.735437989E-1,3.550651670E-1
4.638358890E-1,4.975493550E-1,7.449495792E-1,1.479819864E-1
4.735863060E-1,2.385426909E-1,8.286380768E-1,3.207040019E-3
4.833367230E-1,-9.560033679E-2,2.367101014E-1,-1.012508348E-1
4.930870350E-1,-2.715294063E-1,-7.858775258E-1,-2.081521749E-1
5.028374520E-1,-4.489856213E-2,-1.928805590E0,-2.967275679E-1
5.125877640E-1,4.932733178E-1,-2.770577192E0,-3.547597229E-1
5.223381810E-1,9.465349913E-1,-2.757749081E0,-3.217730224E-1
5.320885980E-1,9.954041839E-1,-1.766315460E0,-1.519526094E-1
5.418390140E-1,4.993819594E-1,-5.616901517E-1,-1.024725661E-1
5.515893270E-1,-2.299905866E-1,3.878991306E-2,-3.572031856E-1
5.613397440E-1,-8.127555847E-1,-2.596175298E-2,-7.389936447E-1
5.710900560E-1,-1.059544921E0,-3.820959330E-1,-1.011439323E0
5.808404730E-1,-8.213077188E-1,-7.577777505E-1,-1.070082426E0
5.905908890E-1,-2.397644222E-1,-8.738420606E-1,-9.301943183E-1
6.003412020E-1,3.692677617E-1,-6.533198953E-1,-6.467530727E-1
6.100916190E-1,7.999274135E-1,-2.580903769E-1,-2.484692484E-1
6.198420350E-1,9.544762373E-1,3.558287323E-1,1.931859851E-1
6.295923480E-1,8.048143387E-1,9.434806705E-1,6.024653912E-1
6.393427640E-1,4.938841760E-1,1.057712317E0,8.779653907E-1
6.490930770E-1,1.866191924E-1,7.608320713E-1,9.848667383E-1
6.588434940E-1,4.001164436E-2,4.046979249E-1,8.773545623E-1
6.685939100E-1,6.078104675E-2,2.550360560E-1,6.036871076E-1
6.783443270E-1,1.823431402E-1,1.597411335E-1,2.054032832E-1
6.880946390E-1,2.764163017E-1,-1.802051067E-2,-2.698495090E-1
6.978450560E-1,2.214384824E-1,-1.395826042E-1,-6.559160352E-1
7.075953690E-1,4.612028971E-2,-1.139262840E-1,-8.440623879E-1
7.173457850E-1,-1.218675226E-1,-3.207040206E-2,-8.000801206E-1
7.270962020E-1,-1.982256174E-1,5.100720748E-2,-6.186532974E-1
7.368465140E-1,-1.377500147E-1,1.023198515E-1,-4.170679152E-1
7.465969310E-1,-1.557705179E-2,1.609628648E-1,-2.521344423E-1
7.563473480E-1,6.261363626E-2,1.805105358E-1,-1.232419685E-1
7.660976600E-1,1.139262840E-1,1.517999023E-1,-2.733619884E-2
7.758480770E-1,2.086103261E-1,1.175914705E-1,1.970038936E-2
7.855983890E-1,3.717112243E-1,8.093958348E-2,5.451968312E-2
7.953488060E-1,5.861247778E-1,-3.756818548E-2,1.186604798E-1
8.050992230E-1,8.176425099E-1,-4.327977002E-1,1.821904182E-1
8.148495350E-1,9.734130502E-1,-9.611957073E-1,2.817613780E-1
8.245999520E-1,1.066875339E0,-1.442557216E0,4.717403352E-1
8.343502640E-1,1.168889761E0,-1.739437461E0,7.124210596E-1
8.441006810E-1,1.231197953E0,-1.781587124E0,8.895718455E-1
8.538510980E-1,1.096196890E0,-1.592218995E0,9.744820595E-1
8.636014100E-1,7.522799969E-1,-1.284954071E0,9.604321718E-1
8.733518270E-1,3.546070158E-1,-1.023503900E0,7.545707226E-1
8.831021390E-1,-3.573558852E-2,-8.304706812E-1,3.990474045E-1
8.928525560E-1,-3.772090077E-1,-7.180715203E-1,-4.123337101E-3
9.026028690E-1,-6.160571575E-1,-5.928442478E-1,-3.657552898E-1
9.123532850E-1,-6.930260658E-1,-3.955349326E-1,-5.557342172E-1
9.221037020E-1,-6.062833071E-1,-4.856374860E-2,-5.416843295E-1
9.318540140E-1,-3.979783952E-1,4.120282829E-1,-4.256200492E-1
9.416044310E-1,-1.432477981E-1,9.306524992E-1,-2.564104795E-1
9.513547440E-1,1.206457913E-1,1.182328820E0,-8.903354406E-2
9.611051600E-1,2.721402645E-1,8.151990771E-1,8.689551800E-2
9.708554730E-1,3.625482321E-1,-6.872228533E-2,3.513999581E-1
9.806058890E-1,6.313287616E-1,-1.050992846E0,5.951350331E-1
9.903563060E-1,9.489784241E-1,-1.684459686E0,6.305651665E-1
1.000106619E0,1.088866472E0,-1.719889760E0,4.363101721E-1
1.009857035E0,8.793398738E-1,-1.087033868E0,8.994983882E-2
1.019607348E0,3.210094273E-1,4.123337194E-2,-2.936732471E-1
1.029357764E0,-2.813032269E-1,1.135292172E0,-5.331322551E-1
1.039108077E0,-5.855138898E-1,1.732717991E0,-5.642863512E-1
1.048858389E0,-5.225948095E-1,1.707672477E0,-3.804160357E-1
1.058608806E0,-2.348775119E-1,1.174998403E0,-3.283398226E-2
1.068359223E0,1.805105358E-1,3.136790693E-1,3.526217043E-1
1.078109535E0,6.557633281E-1,-5.531380773E-1,5.963567495E-1
1.087859952E0,1.006399751E0,-1.049771070E0,6.525563002E-1
1.097610369E0,1.047327638E0,-1.010675788E0,5.902481079E-1
1.107360681E0,8.023709059E-1,-6.111702323E-1,4.375318885E-1
1.117111098E0,3.344484568E-1,8.857538924E-3,2.353356630E-1
1.126861410E0,-1.517999023E-1,7.199041247E-1,-3.649916872E-2
1.136611827E0,-4.786125422E-1,1.349705696E0,-3.681987524E-1
1.146362139E0,-7.131846547E-1,1.761428595E0,-6.852375865E-1
1.156112556E0,-8.860593438E-1,1.899484038E0,-8.990402222E-1
1.165862869E0,-8.475748897E-1,1.801134825E0,-9.778417945E-1
1.175613285E0,-5.568032265E-1,1.445000648E0,-9.222530723E-1
1.185363598E0,-1.676823795E-1,8.579595685E-1,-7.163916826E-1
1.195114014E0,1.548542231E-1,2.098320574E-1,-4.036289155E-1
1.204864327E0,3.564395905E-1,-3.723220825E-1,-7.376192510E-2
1.214614744E0,4.810560048E-1,-7.015781999E-1,1.779143661E-1
1.224365056E0,5.940660238E-1,-7.412844300E-1,3.031416535E-1
1.234115473E0,6.569850445E-1,-5.726857185E-1,3.617846668E-1
1.243865785E0,6.062833071E-1,-3.943132162E-1,3.507890999E-1
1.253616202E0,4.309650958E-1,-3.411679864E-1,2.799287736E-1
1.263366514E0,1.872300506E-1,-4.780016840E-1,2.115119249E-1
1.273116931E0,-2.046396956E-2,-7.754928470E-1,1.644753367E-1
1.282867244E0,-1.053741723E-1,-1.096196890E0,1.039997265E-1
1.292617660E0,-2.046396956E-2,-1.308777809E0,3.436114267E-2
1.302367973E0,2.031125426E-1,-1.272736788E0,-4.123337101E-3
1.312118389E0,3.869828284E-1,-9.227112532E-1,-2.306014486E-2
1.321868702E0,3.527744114E-1,-3.320049942E-1,-1.756236330E-2
1.331619119E0,9.498947114E-2,2.733619809E-1,2.519817278E-2
1.341369431E0,-2.965748608E-1,6.258309484E-1,1.009454057E-1
1.351119744E0,-6.466003656E-1,6.753110290E-1,1.388190240E-1
1.360870160E0,-7.754928470E-1,5.665770769E-1,2.580903657E-2
1.370620473E0,-6.808087826E-1,5.384773016E-1,-2.503018379E-1
1.380370889E0,-4.883863926E-1,4.712821841E-1,-5.545125008E-1
1.390121202E0,-3.741546869E-1,1.566868126E-1,-6.827940941E-1
1.399871619E0,-4.156934917E-1,-2.532034516E-1,-4.763218164E-1
1.409621931E0,-4.883863926E-1,-5.653553605E-1,6.551524997E-2
1.419372348E0,-5.690205693E-1,-6.747001410E-1,7.954986691E-1
1.429122660E0,-6.649262905E-1,-5.115992427E-1,1.409417748E0
1.438873077E0,-6.380482912E-1,-8.155044913E-2,1.543197155E0
1.448623389E0,-3.833176494E-1,6.472112536E-1,1.047174931E0
1.458373702E0,-1.496618707E-2,1.170722365E0,3.049742281E-1
1.468124119E0,1.609628648E-1,1.369864225E0,-2.814559340E-1
1.477874431E0,1.120936871E-1,1.423620343E0,-5.758927464E-1
1.487624848E0,4.306596518E-2,1.464548349E0,-4.689914286E-1
1.497375160E0,4.367683083E-2,1.568395376E0,-8.414662629E-2
1.507125577E0,1.261435747E-1,1.438281178E0,3.116937578E-1
1.516875889E0,2.434296161E-1,1.043662429E0,5.261073112E-1
1.526626306E0,3.362810612E-1,5.433642268E-1,4.851793647E-1
1.536376619E0,3.313941360E-1,1.951712966E-1,2.793179154E-1
1.546126931E0,2.214384824E-1,-5.528326333E-2,7.345648855E-2
1.555877348E0,9.071341902E-2,-2.623664141E-1,-2.183841541E-2
1.565627660E0,7.360920310E-2,-3.436114490E-1,2.764163166E-2
1.575378077E0,2.183841616E-1,-2.269362658E-1,2.072358727E-1
1.585128389E0,4.541779757E-1,7.116574794E-2,4.277580678E-1
1.594878806E0,6.270527244E-1,4.224129915E-1,5.988001823E-1
1.604629119E0,6.643154621E-1,5.476402640E-1,6.152935624E-1
1.614379431E0,5.128209591E-1,5.225948095E-1,4.375318885E-1
1.624129848E0,1.175914705E-1,4.627300799E-1,1.412624866E-1
1.633880160E0,-4.156934917E-1,3.564395905E-1,-1.965457499E-1
1.643630577E0,-8.164207935E-1,1.169806048E-1,-5.490147471E-1
1.653380889E0,-9.013310075E-1,-1.151480079E-1,-7.970257998E-1
1.663131202E0,-6.820304990E-1,-2.788597643E-1,-7.878628373E-1
1.672881619E0,-3.112356067E-1,-3.674351573E-1,-4.964803457E-1
1.682631931E0,5.161807314E-2,-3.900371492E-1,-8.903354406E-2
1.692382348E0,3.069595397E-1,-3.839285076E-1,2.109010667E-1
1.702132660E0,3.790415823E-1,-3.937023580E-1,2.047924101E-1
1.711882973E0,2.104429156E-1,-3.252854943E-1,-1.079703495E-1
1.721633389E0,-1.243109852E-1,-1.621845961E-1,-5.557342172E-1
1.731383702E0,-4.321868420E-1,8.582650125E-2,-9.161444306E-1
1.741134014E0,-5.195404887E-1,3.069595397E-1,-1.022434950E0
1.750884431E0,-3.808741868E-1,4.804451466E-1,-8.642209172E-1
1.760634744E0,-1.267544478E-1,7.021890879E-1,-5.441278219E-1
1.770385160E0,1.872300506E-1,7.461713552E-1,-2.448040545E-1
1.780135473E0,4.706713259E-1,5.427533388E-1,-1.275180280E-1
1.789885785E0,6.349939108E-1,2.880227566E-1,-1.776089370E-1
1.799636202E0,6.044507027E-1,1.004872546E-1,-3.034470677E-1
1.809386514E0,4.853320718E-1,6.261363626E-2,-3.822486401E-1
1.819136931E0,3.277289569E-1,4.040870368E-1,-3.150535226E-1
1.828887244E0,-1.679878123E-2,1.042440772E0,-4.199695215E-2
1.838637556E0,-6.423243284E-1,1.338710189E0,3.513999581E-1
1.848387973E0,-1.259297729E0,6.637045741E-1,6.238456368E-1
1.858138285E0,-1.357646942E0,-5.500837564E-1,7.362447977E-1
1.867888598E0,-8.823941946E-1,-1.422398686E0,6.733257174E-1
1.877639014E0,-2.672533393E-1,-1.643531680E0,4.931205809E-1
1.887389327E0,9.132428467E-2,-1.314886451E0,2.811505198E-1
1.897139639E0,7.299833745E-2,-6.435460448E-1,-7.437278330E-2
1.906890056E0,-3.075704277E-1,9.010255337E-2,-4.256200492E-1
1.916640369E0,-7.583886385E-1,4.431824088E-1,-6.137663722E-1
1.926390681E0,-1.035721183E0,3.350593448E-1,-5.593994260E-1
1.936141098E0,-1.179885268E0,-2.605338395E-1,-2.289215773E-1
1.945891410E0,-1.075427413E0,-1.108414173E0,2.787070572E-1
1.955641723E0,-7.021890879E-1,-1.949574947E0,8.046616316E-1
1.965392139E0,-2.507599890E-1,-2.379623652E0,1.127809048E0
1.975142452E0,1.988364905E-1,-2.244622707E0,1.144302487E0
1.984892764E0,5.830704570E-1,-1.521969557E0,8.767436743E-1
1.994643181E0,8.384119272E-1,-3.191768527E-1,4.644099474E-1
2.004393494E0,9.019418359E-1,1.030223489E0,7.834340632E-2
2.014143806E0,8.402445316E-1,2.009439707E0,-1.818849891E-1
2.023894223E0,8.512400985E-1,2.351523876E0,-2.600756884E-1
2.033644535E0,1.115744472E0,2.122449636E0,-9.208786488E-2
2.043394848E0,1.594662547E0,1.592829943E0,2.438877672E-1
2.053145264E0,1.969733477E0,1.101694584E0,4.509709179E-1
2.062895577E0,1.813962936E0,9.214895368E-1,3.642281294E-1
2.072645889E0,1.111468434E0,9.202677608E-1,1.589775532E-1
2.082396306E0,1.927278340E-1,1.009454012E0,-4.016435891E-2
2.092146619E0,-5.244274139E-1,1.088255644E0,-1.965457499E-1
2.101896931E0,-7.907644510E-1,1.081536055E0,-1.886045039E-1
2.111647348E0,-6.734784245E-1,8.310815096E-1,3.130681813E-2
2.121397660E0,-3.985892832E-1,3.546070158E-1,3.727802336E-1
2.131147973E0,-1.194240674E-1,-1.279761642E-1,7.234166265E-1
2.140898285E0,1.243109852E-1,-4.535670877E-1,9.414953589E-1
2.150648702E0,3.747655451E-1,-4.560105503E-1,9.402735829E-1
2.160399014E0,5.342012644E-1,-2.910770774E-1,7.686206102E-1
2.170149327E0,4.101957083E-1,-2.122755051E-1,4.558578432E-1
2.179899744E0,2.962694131E-2,-3.185659945E-1,5.085449293E-2
2.189650056E0,-4.786125422E-1,-5.439751148E-1,-3.462076187E-1
2.199400369E0,-8.707877398E-1,-8.060360551E-1,-6.968439817E-1
2.209150785E0,-8.885028362E-1,-9.074396491E-1,-8.379537463E-1
2.218901098E0,-5.445859432E-1,-6.557633281E-1,-6.449204683E-1
2.228651410E0,1.924224012E-2,-1.432477981E-1,-3.034470677E-1
2.238401723E0,5.378664136E-1,5.482511520E-1,-8.720094711E-2
2.248152139E0,7.021890879E-1,1.007010579E0,-1.146898642E-1
2.257902452E0,2.825249732E-1,1.107192397E0,-4.830413163E-1
2.267652764E0,-6.239983439E-1,1.007010579E0,-9.815070033E-1
2.277403181E0,-1.632536173E0,6.301070452E-1,-1.288161159E0
2.287153494E0,-2.270889759E0,2.501491308E-1,-1.234405041E0
2.296903806E0,-2.251342058E0,2.666424811E-1,-8.660535216E-1
2.306654119E0,-1.759595990E0,8.084795475E-1,-4.072940946E-1
2.316404535E0,-1.138957381E0,1.522580504E0,-2.367101051E-2
2.326154848E0,-5.170970559E-1,2.074191332E0,7.773254067E-2
2.335905160E0,-6.383536756E-2,2.198807716E0,-1.372918636E-1
2.345655473E0,3.084867075E-2,1.650251150E0,-5.642863512E-1
2.355405785E0,-6.811141968E-2,8.261946440E-1,-9.191987514E-1
2.365156202E0,-9.804379940E-2,3.268126398E-2,-1.045647740E0
2.374906514E0,3.970621154E-3,-4.224129915E-1,-9.778417945E-1
2.384656827E0,1.866191924E-1,-5.482511520E-1,-7.023417950E-1
2.394407244E0,2.935205400E-1,-5.696313977E-1,-3.150535226E-1
2.404157556E0,2.758054435E-1,-8.665117025E-1,7.651081681E-2
2.413907869E0,1.371391416E-1,-1.404072642E0,3.568977416E-1
2.423658181E0,-4.367683083E-2,-1.818238974E0,5.138899684E-1
2.433408598E0,-4.184423760E-2,-1.970344305E0,6.867647171E-1
2.443158910E0,2.525925934E-1,-1.775478482E0,7.166970968E-1
2.452909223E0,7.467821836E-1,-1.191491723E0,5.328267813E-1
2.462659535E0,1.013730049E0,-2.269362658E-1,2.719875574E-1
2.472409952E0,8.689551353E-1,7.150171995E-1,-2.306014486E-2
2.482160264E0,5.170970559E-1,1.436448574E0,-2.741255760E-1
2.491910577E0,7.116574794E-2,1.842673659E0,-5.184714794E-1
2.501660889E0,-3.924806118E-1,1.870162487E0,-7.279980779E-1
2.511411306E0,-7.113520503E-1,1.525634766E0,-8.373429179E-1
2.521161619E0,-8.665117025E-1,1.013119221E0,-7.951932549E-1
2.530911931E0,-9.636391997E-1,5.232056975E-1,-5.716167092E-1
2.540662244E0,-1.003345370E0,6.994401664E-2,-1.434005052E-1
2.550412660E0,-8.127555847E-1,-3.112356067E-1,3.966039717E-1
2.560162973E0,-2.550360560E-1,-5.177078843E-1,8.303179741E-1
2.569913285E0,4.853320718E-1,-5.439751148E-1,9.659299254E-1
2.579663598E0,9.746347666E-1,-4.670061171E-1,8.113811612E-1
2.589413910E0,8.689551353E-1,-3.112356067E-1,4.766272306E-1
2.599164327E0,1.841757298E-1,-1.096502244E-1,7.651081681E-2
2.608914639E0,-8.335250020E-1,8.949168772E-2,-3.223838806E-1
2.618664952E0,-1.812130332E0,2.061668634E-1,-5.667297840E-1
2.628415264E0,-2.207359791E0,1.750127524E-1,-4.103484154E-1
2.638165577E0,-1.807854295E0,1.230892539E-1,1.412624866E-1
2.647915994E0,-8.133664727E-1,-1.249218509E-1,7.466294765E-1
2.657666306E0,4.187478125E-1,-5.513054729E-1,1.043509722E0
2.667416619E0,1.405905247E0,-1.220202446E0,9.262236953E-1
2.677166931E0,1.764482975E0,-1.667355418E0,4.546361268E-1
2.686917348E0,1.285564899E0,-1.142622590E0,-2.002109289E-1
2.696667660E0,1.756236255E-1,1.463021189E-1,-5.563451052E-1
2.706417973E0,-8.512400985E-1,1.746767879E0,-3.761399984E-1
2.716168285E0,-1.217758894E0,2.936121464E0,1.437059343E-1
2.725918598E0,-7.351757884E-1,3.119380951E0,8.553634286E-1
2.735668910E0,1.218675226E-1,2.241568327E0,1.130252600E0
2.745419327E0,7.015781999E-1,1.039386392E0,9.036217332E-1
2.755169639E0,8.005383015E-1,4.612028971E-2,6.006327868E-1
2.764919952E0,7.559451461E-1,-6.038398147E-1,4.967857897E-1
2.774670264E0,1.000291109E0,-5.677987933E-1,5.267181396E-1
2.784420577E0,1.285564899E0,-1.591302752E-1,6.189587116E-1
2.794170994E0,1.041218996E0,1.377500147E-1,6.549997330E-1
2.803921306E0,3.985892832E-1,1.713475734E-1,6.556106210E-1
2.813671619E0,-1.145371497E-1,-4.917461425E-2,4.308123887E-1
2.823421931E0,-2.782489061E-1,-3.619373739E-1,-4.810560122E-2
2.833172244E0,-2.641990185E-1,-7.327322960E-1,-4.421133697E-1
2.842922556E0,-1.866191924E-1,-1.094364285E0,-5.392408967E-1
2.852672973E0,7.849612087E-2,-1.124296665E0,-4.201222658E-1
2.862423285E0,5.787943602E-1,-7.944296598E-1,-1.873827726E-1
2.872173598E0,1.121853113E0,-1.377500147E-1,5.451968312E-2
2.881923910E0,1.425452948E0,5.445859432E-1,1.919642538E-1
2.891674223E0,1.325271130E0,9.477567077E-1,1.944077164E-1
2.901424535E0,1.014951825E0,1.080314398E0,9.178243577E-2
2.911174952E0,7.064651251E-1,1.063210130E0,-5.910116807E-2
2.920925264E0,4.499019086E-1,1.015562654E0,-2.050978541E-1
2.930675577E0,2.269362658E-1,9.080504775E-1,-2.619082630E-1
2.940425889E0,-3.359756200E-3,6.960803866E-1,-2.222020626E-1
2.950176202E0,-2.513708472E-1,4.547888339E-1,-8.659008145E-2
2.959926514E0,-4.376846254E-1,2.403752953E-1,1.125518382E-1
2.969676827E0,-4.957167804E-1,8.888082206E-2,3.385718167E-1
2.979427244E0,-4.126391709E-1,-4.856374860E-2,4.723511934E-1
2.989177556E0,-2.794706225E-1,-2.171624303E-1,4.192059636E-1
2.998927869E0,-1.096502244E-1,-3.472766280E-1,1.742491722E-1
3.008678181E0,1.740964688E-2,-4.389063418E-1,-2.087630332E-1
3.018428494E0,-7.788526267E-2,-5.610793233E-1,-6.742420197E-1
3.028178806E0,-4.413498044E-1,-6.973021626E-1,-1.119562387E0
3.037929223E0,-8.579595685E-1,-6.973021626E-1,-1.409723163E0
3.047679535E0,-1.135292172E0,-4.352411628E-1,-1.478750944E0
3.057429848E0,-1.184772253E0,-1.188132018E-1,-1.263726473E0
3.067180160E0,-9.801325202E-1,1.078176349E-1,-9.320269227E-1
3.076930473E0,-5.659661889E-1,1.921169758E-1,-6.149880886E-1
3.086680785E0,-1.560759544E-1,1.945604384E-1,-3.205513060E-1
3.096431098E0,1.102610901E-1,9.071341902E-2,-1.207985133E-1
3.106181410E0,2.171624303E-1,-9.560033679E-2,-8.170316368E-2
3.115931827E0,1.823431402E-1,-3.106247485E-1,-1.678351015E-1
3.125682139E0,9.621120244E-2,-5.293143392E-1,-2.857320011E-1
3.135432452E0,-7.635809947E-3,-6.026180983E-1,-3.199404180E-1
3.145182764E0,-1.328630894E-1,-4.700604379E-1,-1.366809905E-1
3.154933077E0,-1.719584316E-1,-1.560759544E-1,3.049742281E-1
3.164683389E0,-8.857538924E-3,1.963930279E-1,8.223767281E-1
3.174433702E0,2.226602137E-1,3.417788446E-1,1.130863428E0
3.184184014E0,2.287688553E-1,-4.795288667E-2,1.072220445E0
3.193934327E0,4.612028971E-2,-7.987056971E-1,5.963567495E-1
3.203684744E0,-1.328630894E-1,-1.503032804E0,-9.086613357E-2
3.213435056E0,-1.548542231E-1,-1.777921915E0,-5.331322551E-1
3.223185369E0,2.800815105E-1,-1.319773316E0,-3.700313270E-1
3.232935681E0,1.049160242E0,-2.168569900E-2,1.766926348E-1
3.242685994E0,1.715002894E0,1.221424103E0,7.020363212E-1
3.252436306E0,1.813962936E0,1.762039423E0,9.195042253E-1
3.262186619E0,1.183550477E0,1.390022755E0,8.474221826E-1
3.271936931E0,3.032943606E-1,4.352411628E-1,5.450441241E-1
3.281687244E0,-1.059850380E-1,-5.372555852E-1,1.088866442E-1
3.291437556E0,4.428769648E-2,-1.230587125E0,-3.052796721E-1
3.301187973E0,2.629773021E-1,-1.379638076E0,-5.630646348E-1
3.310938181E0,3.478874862E-1,-9.263764620E-1,-5.068650246E-1
3.320688598E0,4.028653204E-1,-1.921169758E-1,-1.207985133E-1
3.330438910E0,5.115992427E-1,4.663952589E-1,3.752236962E-1
3.340189223E0,6.319395900E-1,8.206968307E-1,6.165152788E-1
3.349939535E0,6.166679859E-1,8.701768517E-1,4.845684767E-1
3.359689848E0,5.067123175E-1,8.371901512E-1,9.361502528E-2
3.369440160E0,3.558287323E-1,9.184352160E-1,-3.889681399E-1
3.379190473E0,1.695149690E-1,1.160948515E0,-8.367320299E-1
3.388940785E0,-9.804379940E-2,1.496924162E0,-1.182481527E0
3.398691098E0,-4.370737374E-1,1.876882076E0,-1.399338484E0
3.408441410E0,-8.732311726E-1,2.156047344E0,-1.359632254E0
3.418191827E0,-1.342986226E0,2.003942013E0,-1.038317442E0
3.427942139E0,-1.468213439E0,1.415068269E0,-5.740602016E-1
3.437692348E0,-1.123685718E0,6.337721944E-1,-5.604684353E-2
3.447442764E0,-5.836812854E-1,-7.360920310E-2,3.849975169E-1
3.457193077E0,-1.530216336E-1,-5.531380773E-1,7.221949100E-1
3.466943389E0,1.707367003E-1,-7.828232050E-1,8.962913752E-1
3.476693702E0,4.615083337E-1,-8.200859427E-1,8.034399152E-1
3.486444014E0,5.806269646E-1,-8.414662480E-1,4.735729098E-1
3.496194327E0,3.081812859E-1,-1.040608168E0,1.664606482E-2
3.505944639E0,-1.927278340E-1,-1.241582632E0,-3.272708058E-1
3.515694952E0,-6.643154621E-1,-1.060155869E0,-4.335612655E-1
3.525445264E0,-9.599739909E-1,-4.651735425E-1,-2.252563834E-1
3.535195577E0,-9.111047983E-1,6.994401664E-2,2.005163580E-1
3.544945889E0,-6.728675365E-1,1.811214089E-1,6.470585465E-1
3.554696202E0,-3.399462402E-1,-2.049451321E-1,9.873101711E-1
3.564446514E0,1.322522312E-1,-7.370083332E-1,1.080772519E0
3.574196827E0,6.032289863E-1,-1.113301039E0,9.243911505E-1
3.583947244E0,6.905826330E-1,-1.308777809E0,6.177369952E-1
3.593697556E0,2.306014597E-1,-1.176831007E0,2.396117151E-1
3.603447869E0,-5.928442478E-1,-3.992001414E-1,1.359174121E-2
3.613198181E0,-1.536019444E0,6.911935210E-1,1.895207912E-1
3.622948494E0,-2.071748018E0,1.490815520E0,6.812669635E-1
3.632698806E0,-1.675907493E0,1.601992846E0,1.171791315E0
3.642449119E0,-4.101957083E-1,1.517693520E0,1.510821342E0
3.652199431E0,9.129374027E-1,1.137735605E0,1.691026449E0
3.661949744E0,1.029612541E0,-1.123074889E0,1.348942161E0
3.671700056E0,7.980948091E-1,-1.619097114E0,1.011133909E0
3.681450264E0,1.362533927E0,-4.077522457E-1,4.747946560E-1
3.691200681E0,1.166446328E0,4.352411628E-1,-1.928805560E-1
3.700950994E0,8.460476995E-2,7.162389755E-1,-8.177952170E-1
3.710701306E0,-9.679152369E-1,7.437278628E-1,-1.234405041E0
3.720451619E0,-1.213482857E0,4.352411628E-1,-1.222187757E0
3.730201931E0,-7.522799969E-1,1.328630894E-1,-8.758273721E-1
3.739952244E0,-8.949168772E-2,-2.440404743E-1,-3.914116025E-1
3.749702556E0,3.320049942E-1,-3.827067912E-1,-3.266599476E-1
3.759452869E0,2.660316229E-1,1.243109852E-1,-9.454659820E-1
3.769203181E0,-3.778198659E-1,8.213077188E-1,-1.187979221E0
3.778953494E0,-7.473930717E-1,1.594051600E0,-1.343138933E0
3.788703806E0,-7.156280875E-1,1.910479546E0,-1.358410597E0
3.798454119E0,-3.851502538E-1,1.528689146E0,-1.351080179E0
3.808204431E0,3.136790693E-1,7.431169748E-1,-1.109788537E0
3.817954744E0,8.384119272E-1,-7.666353136E-2,-7.848085165E-1
3.827705056E0,9.721912742E-1,-8.023709059E-1,-5.227475166E-1
3.837455369E0,8.402445316E-1,-1.225089312E0,-3.126100600E-1
3.847205681E0,4.572322965E-1,-1.404683590E0,-3.003927469E-1
3.856955994E0,2.596175298E-2,-1.455996156E0,-3.168860972E-1
3.866706306E0,-1.566868126E-1,-1.457217932E0,-2.600756884E-1
3.876456619E0,-1.945604384E-1,-1.413235664E0,-1.788306683E-1
3.886206931E0,-3.356702030E-1,-1.281899691E0,-2.020435184E-1
3.895957244E0,-4.517345130E-1,-1.049160242E0,-2.777907550E-1
3.905707556E0,-3.527744114E-1,-7.809906006E-1,-2.515235841E-1
3.915457869E0,-4.428769648E-2,-5.549706817E-1,-1.873827726E-1
3.925208181E0,2.617555559E-1,-4.309650958E-1,-2.733619884E-2
3.934958494E0,4.395172000E-1,-3.851502538E-1,1.485928595E-1
3.944708806E0,5.164861679E-1,-3.790415823E-1,2.658788860E-1
3.954459119E0,4.804451466E-1,-3.173442483E-1,3.110828996E-1
3.964209431E0,4.193586707E-1,-1.499672979E-1,3.349066079E-1
3.973959744E0,3.448331654E-1,1.374445762E-2,3.617846668E-1
3.983710056E0,1.951712966E-1,9.437860548E-2,3.501782417E-1
3.993460369E0,4.734202102E-2,5.467239767E-2,3.196350038E-1
4.003210681E0,2.229656465E-2,-9.132428467E-2,2.805396616E-1
4.012960994E0,4.428769648E-2,-2.452622056E-1,2.756527364E-1
4.022711306E0,6.322450191E-2,-3.576613367E-1,3.074176908E-1
4.032461619E0,1.249218509E-1,-3.381136656E-1,3.355174661E-1
4.042211931E0,2.794706225E-1,-1.053741723E-1,3.550651670E-1
4.051962244E0,3.399462402E-1,1.951712966E-1,4.515817761E-1
4.061712556E0,1.169806048E-1,4.468475878E-1,5.859720111E-1
4.071462869E0,-4.578431547E-1,3.368919194E-1,6.421716213E-1
4.081213181E0,-1.211039424E0,-2.293797284E-1,7.735075355E-1
4.090963494E0,-2.043037176E0,-8.768963814E-1,9.561560750E-1
4.100713806E0,-2.339306593E0,-1.402850986E0,9.653190970E-1
4.110464119E0,-1.479209065E0,-1.259908557E0,6.983711720E-1
4.120214327E0,3.634645417E-2,-6.093376279E-1,2.652680278E-1
4.129964639E0,1.313664675E0,7.422006875E-2,-7.987056673E-2
4.139714952E0,1.892764568E0,3.882045746E-1,-1.537852138E-1
4.149465264E0,1.772424102E0,2.996291816E-1,-1.134681329E-1
4.159215577E0,9.550870657E-1,1.249218509E-1,-6.093376130E-2
4.168965889E0,-3.203985691E-1,-3.329212964E-2,1.284343153E-1
4.178716202E0,-1.520136952E0,6.933315098E-2,3.306305707E-1
4.188466514E0,-2.068082809E0,4.437932670E-1,4.637990892E-1
4.198216827E0,-1.920864344E0,8.402445316E-1,5.407680273E-1
4.207967139E0,-1.264184713E0,1.117577076E0,5.163334608E-1
4.217717452E0,-4.181369543E-1,1.388801098E0,3.526217043E-1
4.227467764E0,3.484983444E-1,1.633757830E0,1.156061590E-1
4.237218077E0,7.535017133E-1,1.622762322E0,-7.620538026E-2
4.246968389E0,8.237511516E-1,1.303279996E0,-1.824958473E-1
4.256718702E0,8.109229803E-1,9.056070447E-1,-2.423606068E-1
4.266469014E0,8.384119272E-1,5.323686600E-1,-3.003927469E-1
4.276219327E0,8.573487401E-1,1.634063274E-1,-3.431532979E-1
4.285969639E0,8.915571570E-1,-2.257145345E-1,-3.278816640E-1
4.295719952E0,8.897245526E-1,-6.459894776E-1,-2.588539422E-1
4.305470160E0,7.363975048E-1,-9.831868410E-1,-1.965457499E-1
4.315220473E0,4.334085584E-1,-1.132848740E0,-1.562286615E-1
4.324970785E0,9.010255337E-2,-1.042440772E0,1.985310577E-3
4.334721098E0,-3.695731983E-2,-8.988875151E-1,1.382081509E-1
4.344471410E0,3.573558852E-2,-9.697478414E-1,1.773035079E-1
4.354221723E0,3.940077871E-2,-1.182328820E0,1.760817766E-1
4.363972035E0,5.283980444E-2,-1.565340996E0,1.595884264E-1
4.373722348E0,3.054323897E-4,-1.324049354E0,7.101303339E-2
4.383472660E0,-1.896735132E-1,-8.494074941E-1,-7.177661173E-3
4.393222973E0,-2.641990185E-1,-4.944950342E-1,-1.091920808E-1
4.402973285E0,-3.032943606E-1,-3.796524704E-1,-1.446222365E-1
4.412723598E0,-4.987711012E-1,-5.384773016E-1,-3.222311661E-2
4.422473910E0,-6.331613660E-1,-5.775726438E-1,1.601992846E-1
4.432224119E0,-1.383608729E-1,-5.039634556E-2,3.630063832E-1
4.441974431E0,2.971857190E-1,-2.715294063E-1,7.344121933E-1
4.451724744E0,6.081159115E-1,-3.839285076E-1,7.918334603E-1
4.461475056E0,6.753110290E-1,-3.631591201E-1,6.024653912E-1
4.471225369E0,7.101303339E-1,5.955931544E-2,3.196350038E-1
4.480975681E0,6.936369538E-1,6.362156868E-1,2.031125315E-2
4.490725889E0,3.161225319E-1,1.063820958E0,-1.409570426E-1
4.500476306E0,-5.250383019E-1,1.349705696E0,-1.049160287E-1
4.510226514E0,-1.621540546E0,1.413235664E0,-2.367101051E-2
4.519976931E0,-2.244011879E0,1.311221242E0,6.856957078E-2
4.529727244E0,-2.116341114E0,9.532544613E-1,2.127336562E-1
4.539477452E0,-1.683848739E0,4.951058924E-1,2.316704690E-1
4.549227764E0,-1.107803226E0,2.495382577E-1,-6.765327603E-2
4.558978077E0,-6.924152374E-1,2.513708472E-1,-4.677697122E-1
4.568728389E0,-4.871646762E-1,4.670061171E-1,-8.049670458E-1
4.578478702E0,-3.778198659E-1,7.589994669E-1,-9.888373613E-1
4.588229014E0,-4.218021333E-1,9.813542962E-1,-1.056643367E0
4.597979327E0,-6.172788739E-1,9.294307828E-1,-9.644027948E-1
4.607729639E0,-7.968730927E-1,3.747655451E-1,-7.793107629E-1
4.617479848E0,-6.020072699E-1,-2.501491308E-1,-5.746710300E-1
4.627230160E0,-1.188132018E-1,-6.918043494E-1,-5.068650246E-1
4.636980473E0,4.175260663E-1,-8.255837560E-1,-5.349648595E-1
4.646730785E0,8.145881891E-1,-5.647444725E-1,-5.074759126E-1
4.656481098E0,9.715804458E-1,-1.252272818E-2,-4.573850036E-1
4.666231410E0,9.941824079E-1,5.421425104E-1,-4.286743701E-1
4.675981723E0,9.782999158E-1,8.616247773E-1,-3.333794475E-1
4.685732035E0,9.996802211E-1,8.695660233E-1,-2.099847645E-1
4.695482244E0,9.941824079E-1,6.307178736E-1,-7.620538026E-2
4.705232556E0,9.019418359E-1,2.990183234E-1,3.741546720E-2
4.714982869E0,7.315105796E-1,-5.528326333E-2,6.795870513E-2
4.724733181E0,4.199695289E-1,-3.992001414E-1,4.535670951E-2
4.734483494E0,1.017089859E-1,-5.134318471E-1,-6.093376130E-2
4.744233806E0,-1.078176349E-1,-4.651735425E-1,-1.941022873E-1
4.753984119E0,-3.112356067E-1,-4.065304995E-1,-2.576322258E-1
4.763734431E0,-3.985892832E-1,-3.839285076E-1,-2.845102847E-1
4.773484639E0,-3.643808365E-1,-3.863719702E-1,-3.138317764E-1
4.783234952E0,-2.574795187E-1,-4.596757591E-1,-3.242164850E-1
4.792985264E0,-1.267544478E-1,-5.543597937E-1,-2.887863219E-1
4.802735577E0,-6.322450191E-2,-7.400626540E-1,-2.759581506E-1
4.812485889E0,-9.010255337E-2,-9.068287611E-1,-2.716821134E-1
4.822236202E0,-1.017089859E-1,-8.952223063E-1,-2.105956376E-1
4.831986514E0,-9.804379940E-2,-7.644972801E-1,-1.763872057E-1
4.841736723E0,-3.023780696E-2,-4.859429300E-1,-1.165224537E-1
4.851487035E0,-2.840521187E-2,-1.835648715E-1,-2.672533318E-2
4.861237348E0,-1.505781710E-1,1.188132018E-1,7.773254067E-2
4.870987660E0,-2.122755051E-1,3.637699783E-1,1.131627038E-1
4.880737973E0,-1.682932526E-1,4.627300799E-1,1.052214578E-1
4.890488285E0,-1.218675226E-1,3.307832778E-1,7.467821985E-2
4.900238494E0,-6.078104675E-2,1.517999023E-1,1.284343153E-1
4.909988806E0,7.055488229E-2,8.643736690E-2,2.573267817E-1
4.919739119E0,1.108719558E-1,2.977965772E-1,4.173733592E-1
4.929489431E0,-4.184423760E-2,7.596103549E-1,6.317868829E-1
4.939239744E0,-4.382954836E-1,9.966259003E-1,8.785762787E-1
4.948990056E0,-7.113520503E-1,6.148353815E-1,1.166904449E0
4.958740369E0,-5.042688847E-1,-2.122755051E-1,1.319620609E0
4.968490577E0,1.450803876E-1,-8.677334189E-1,1.173623919E0
4.978240889E0,1.118798852E0,-1.066875339E0,7.026472092E-1
4.987991202E0,2.107177973E0,-8.659008145E-1,6.246092543E-2
4.997741514E0,2.603811026E0,-5.427533388E-1,-4.891499579E-1
5.007491827E0,2.492633820E0,-3.417788446E-1,-7.267763615E-1
5.017242139E0,2.045480728E0,-3.857611120E-1,-6.039925218E-1
5.026992348E0,1.418733478E0,-5.714640021E-1,-2.735147178E-1
5.036742660E0,8.500183225E-1,-7.596103549E-1,2.031125315E-2
5.046492973E0,4.841103256E-1,-8.866702318E-1,1.058323234E-1
5.056243285E0,2.794706225E-1,-8.597921729E-1,4.291325063E-2
5.065993598E0,1.713475734E-1,-6.557633281E-1,-1.043051630E-1
5.075743910E0,2.342666388E-1,-2.837466896E-1,-2.979492843E-1
5.085494119E0,3.845393658E-1,2.672533393E-1,-4.592176080E-1
5.095244431E0,3.582721949E-1,9.275981784E-1,-4.066832364E-1
5.104994744E0,1.963930279E-1,1.251356483E0,-1.281288862E-1
5.114745056E0,4.917461425E-2,1.133459568E0,1.595884264E-1
5.124495369E0,-8.246674202E-3,8.176425099E-1,3.648389876E-1
5.134245577E0,-6.444623321E-2,5.592467189E-1,4.583013058E-1
5.143995889E0,-2.257145345E-1,5.183187723E-1,4.124864340E-1
5.153746202E0,-4.853320718E-1,5.568032265E-1,2.848156989E-1
5.163496514E0,-7.205150127E-1,5.610793233E-1,1.730274558E-1
5.173246827E0,-8.298597932E-1,4.969384968E-1,3.863719851E-2
5.182997139E0,-8.066469431E-1,3.546070158E-1,-1.256854236E-1
5.192747348E0,-7.706059217E-1,1.133154184E-1,-2.509126961E-1
5.202497660E0,-7.205150127E-1,-1.114828214E-1,-3.254382014E-1
5.212247973E0,-6.557633281E-1,-2.544251680E-1,-3.791943192E-1
5.221998285E0,-6.514872909E-1,-2.690859437E-1,-4.408916533E-1
5.231748598E0,-6.362156868E-1,-1.744018942E-1,-4.628827870E-1
5.241498806E0,-5.916225314E-1,-3.817904741E-2,-4.152353406E-1
5.251249119E0,-5.323686600E-1,3.756818548E-2,-3.040579557E-1
5.260999431E0,-4.877755344E-1,5.894844979E-2,-1.476765573E-1
5.270749744E0,-4.639517963E-1,8.888082206E-2,4.428769462E-3
5.280499952E0,-4.621191919E-1,1.298087686E-1,8.078686893E-2
5.290250264E0,-5.305360556E-1,1.652389169E-1,1.125518382E-1
5.300000577E0,-5.623010397E-1,2.226602137E-1,9.483675659E-2
5.309750889E0,-5.555815101E-1,2.660316229E-1,8.704823442E-3
5.319501202E0,-5.531380773E-1,2.318231910E-1,-7.315105945E-2
5.329251410E0,-5.232056975E-1,1.102610901E-1,-1.372918636E-1
5.339001723E0,-4.602866173E-1,-1.740964688E-2,-1.269071549E-1
5.348752035E0,-3.979783952E-1,-1.151480079E-1,4.428769462E-3
5.358502348E0,-3.717112243E-1,-1.163697392E-1,2.206749022E-1
5.368252660E0,-4.682278633E-1,9.682206810E-2,4.442514181E-1
5.378002869E0,-8.487966061E-1,4.639517963E-1,6.507236958E-1
5.387753181E0,-1.333823204E0,8.921679854E-1,9.518800378E-1
5.397503494E0,-1.683848739E0,1.052825451E0,1.114980936E0
5.407253806E0,-1.713781118E0,8.084795475E-1,1.020296931E0
5.417004014E0,-1.201265574E0,3.814850450E-1,8.688024282E-1
5.426754327E0,-3.271180987E-1,-1.493564397E-1,7.270817757E-1
5.436504639E0,6.123919487E-1,-4.101957083E-1,5.010618567E-1
5.446254952E0,1.341764450E0,-3.753764033E-1,1.369864196E-1
5.456005264E0,1.596495152E0,-3.155116439E-1,-1.250745654E-1
5.465755473E0,1.306945205E0,-4.902189970E-1,-1.922696829E-1
5.475505785E0,7.626646757E-1,-7.644972801E-1,-1.849393100E-1
5.485255994E0,1.230892539E-1,-8.151990771E-1,-2.692386508E-1
5.495006410E0,-4.486801922E-1,-6.679806113E-1,-4.647153914E-1
5.504756619E0,-8.762855530E-1,-4.792234302E-1,-7.206677198E-1
5.514506931E0,-1.030223489E0,-2.299905866E-1,-9.350812435E-1
5.524257244E0,-6.783653498E-1,-4.306596518E-2,-1.023045778E0
5.534007556E0,-5.955931544E-2,-1.279761642E-1,-8.807142973E-1
5.543757764E0,4.975493550E-1,-5.250383019E-1,-5.471821427E-1
5.553508077E0,9.056070447E-1,-8.225294352E-1,-2.802342176E-1
5.563258389E0,1.174387574E0,-7.015781999E-1,-2.551887631E-1
5.573008702E0,1.297171354E0,-2.055560052E-1,-4.152353406E-1
5.582758910E0,1.288619280E0,4.560105503E-1,-5.551233888E-1
5.592509223E0,1.116966248E0,9.721912742E-1,-5.801688433E-1
5.602259535E0,8.817833066E-1,1.243415236E0,-4.457785785E-1
5.612009848E0,6.050615907E-1,1.334434152E0,-1.837175786E-1
5.621760056E0,2.354883701E-1,1.214093804E0,8.445205539E-2
5.631510369E0,-2.831358314E-1,9.172134399E-1,3.410152495E-1
5.641260681E0,-7.553343177E-1,5.189296007E-1,4.222602844E-1
5.651010994E0,-9.923498631E-1,3.014617562E-1,2.261726856E-1
5.660761202E0,-9.288198948E-1,2.495382577E-1,-1.030834317E-1
5.670511514E0,-7.932079434E-1,1.988364905E-1,-3.541488647E-1
5.680261827E0,-7.180715203E-1,1.615737379E-1,-4.628827870E-1
5.690012139E0,-6.606502533E-1,1.676823795E-1,-4.696022868E-1
5.699762348E0,-6.502655745E-1,1.395826042E-1,-3.822486401E-1
5.709512660E0,-6.692023873E-1,-9.468403645E-3,-2.545779049E-1
5.719262973E0,-5.775726438E-1,-1.719584316E-1,-1.495091617E-1
5.729013285E0,-4.046979249E-1,-2.507599890E-1,-1.079703495E-1
5.738763494E0,-3.026835024E-1,-3.992001414E-1,-1.635590494E-1
5.748513806E0,-3.533852696E-1,-5.085449219E-1,-3.413206935E-1
5.758264119E0,-3.918697536E-1,-4.431824088E-1,-4.323395491E-1
5.768014327E0,-3.973675370E-1,-3.546070158E-1,-3.394880891E-1
5.777764639E0,-2.788597643E-1,-3.698786199E-1,-1.837175786E-1
5.787514952E0,-5.772672221E-2,-4.272999167E-1,-8.475748450E-2
5.797265264E0,2.947422564E-1,-3.827067912E-1,-9.330959618E-2
5.807015473E0,6.294961572E-1,-1.646280587E-1,-9.941824526E-2
5.816765785E0,8.866702318E-1,1.346956789E-1,-4.199695215E-2
5.826516098E0,1.135292172E0,4.902189970E-1,3.008509055E-2
5.836266410E0,1.285564899E0,7.571669221E-1,1.113301069E-1
5.846016619E0,1.020449638E0,8.011491299E-1,3.141372204E-1
5.855766931E0,3.081812859E-1,5.897899270E-1,5.731438994E-1
5.865517244E0,-3.307832778E-1,-1.985310577E-2,5.908589363E-1
5.875267452E0,-3.344484568E-1,-7.327322960E-1,3.715584874E-1
5.885017764E0,2.935205400E-1,-1.081536055E0,1.174387559E-1
5.894768077E0,1.161559343E0,-9.984585047E-1,3.436114267E-2
5.904518285E0,1.885434151E0,-6.319395900E-1,1.272125840E-1
5.914268598E0,2.182925224E0,-2.367101014E-1,3.031416535E-1
5.924018910E0,1.944688082E0,1.435532235E-2,3.391826749E-1
5.933769223E0,1.215926290E0,1.469129771E-1,2.365573794E-1
5.943519431E0,1.939495653E-1,1.658497900E-1,6.856957078E-2
5.953269744E0,-7.076868415E-1,2.324340492E-1,-2.448040545E-1
5.963020056E0,-1.445611477E0,3.472766280E-1,-6.265945435E-1
5.972770264E0,-1.944077134E0,3.992001414E-1,-7.799215913E-1
5.982520577E0,-1.998444080E0,1.481347084E-1,-5.820014477E-1
5.992270889E0,-1.547015071E0,-2.941313982E-1,-1.385135949E-1
6.002021098E0,-8.439096808E-1,-5.861247778E-1,2.182314396E-1
6.011771410E0,-1.902843714E-1,-6.551524997E-1,3.294088244E-1
6.021521723E0,2.348775119E-1,-4.425715208E-1,2.536616027E-1
6.031272035E0,2.092211843E-1,-1.237001196E-1,1.070540547E-1
6.041022244E0,-8.216131479E-2,1.829539984E-1,-9.819651395E-2
6.050772556E0,-3.210094273E-1,5.329795480E-1,-3.248273432E-1
6.060522869E0,-5.415316224E-1,7.473930717E-1,-5.832231641E-1
6.070273077E0,-7.553343177E-1,7.235693336E-1,-7.139481902E-1
6.080023389E0,-9.227112532E-1,3.668242991E-1,-6.382009983E-1
6.089773702E0,-1.017395258E0,-2.385426909E-1,-3.956876695E-1
6.099523910E0,-8.622356653E-1,-7.962622643E-1,-9.392046183E-2
6.109274223E0,-5.238165259E-1,-1.174387574E0,1.852447391E-1
6.119024431E0,-1.811214089E-1,-1.286786675E0,3.642281294E-1
6.128774744E0,1.679878123E-2,-1.009454012E0,4.234820008E-1
6.138525056E0,2.412915789E-2,-5.549706817E-1,4.185950756E-1
6.148275369E0,-1.618791744E-2,-1.902843714E-1,3.428478539E-1
6.158025577E0,-2.229656465E-2,3.390299529E-2,2.218966335E-1
6.167775889E0,-1.252272818E-2,2.025016695E-1,1.278234571E-1
6.177526202E0,-1.069013402E-2,3.234528899E-1,6.979130208E-2
6.187276410E0,7.116574794E-2,3.888154328E-1,4.718930274E-2
6.197026723E0,2.892444730E-1,3.478874862E-1,1.516471803E-1
6.206777035E0,5.323686600E-1,1.340848207E-1,3.287979662E-1
6.216527244E0,7.712168097E-1,-1.823431402E-1,5.358811021E-1
6.226277556E0,9.764673710E-1,-3.503309488E-1,7.069232464E-1
6.236027869E0,1.083368659E0,-2.855792940E-1,7.765618563E-1
6.245778077E0,1.029001713E0,-1.273653060E-1,7.350230217E-1
6.255528389E0,7.748819590E-1,1.261435747E-1,6.018545032E-1
6.265278598E0,4.773908257E-1,4.456258714E-1,4.314232469E-1
6.275028910E0,2.397644222E-1,5.409207344E-1,2.597702444E-1
6.284779223E0,-1.374445762E-2,3.594939113E-1,1.980729103E-1
6.294529535E0,-3.124573231E-1,-9.468403645E-3,2.585485280E-1
6.304279744E0,-4.346303046E-1,-6.038398147E-1,4.247037470E-1
6.314030056E0,-3.491092324E-1,-9.550870657E-1,5.920807123E-1
6.323780369E0,-2.006690800E-1,-8.255837560E-1,5.988001823E-1
6.333530577E0,-5.161807314E-2,-3.875937164E-1,4.576904476E-1
6.343280889E0,9.162971983E-4,5.589412898E-2,3.080285788E-1
6.353031202E0,-2.657261863E-2,3.087921441E-1,2.139553875E-1
6.362781410E0,4.917461425E-2,3.326158822E-1,1.492037177E-1
6.372531723E0,2.525925934E-1,9.010255337E-2,7.040216774E-2
6.382282035E0,4.120282829E-1,-1.603520066E-1,-8.903354406E-2
6.392032244E0,3.820959330E-1,-3.142899275E-1,-3.339903057E-1
6.401782556E0,2.128863782E-1,-3.588830531E-1,-6.131555438E-1
6.411532869E0,-5.039634556E-2,-3.087921441E-1,-8.666644096E-1
6.421283077E0,-3.234528899E-1,-2.452622056E-1,-1.051756382E0
6.431033389E0,-5.433642268E-1,-2.336557806E-1,-1.101847291E0
6.440783598E0,-7.205150127E-1,-3.594939113E-1,-9.546289444E-1
6.450533910E0,-8.683443069E-1,-5.262600183E-1,-6.247619390E-1
6.460284223E0,-8.750637770E-1,-5.745183229E-1,-2.955058515E-1
6.470034431E0,-7.644972801E-1,-3.863719702E-1,-7.803797722E-2
6.479784744E0,-5.293143392E-1,-2.535088919E-2,-2.855792828E-2
6.489535056E0,-1.499672979E-1,3.680460155E-1,-1.434005052E-1
6.499285264E0,2.018908113E-1,6.692023873E-1,-3.119991720E-1
6.509035577E0,3.992001414E-1,8.579595685E-1,-3.950767815E-1
6.518785785E0,4.395172000E-1,9.013310075E-1,-3.627009690E-1
6.528536098E0,3.827067912E-1,7.736602426E-1,-2.503018379E-1
6.538286410E0,2.996291816E-1,4.963276386E-1,-1.256854236E-1
6.548036619E0,1.243109852E-1,1.603520066E-1,-5.345067009E-3
6.557786931E0,-1.182023361E-1,-1.377500147E-1,1.046105921E-1
6.567537244E0,-3.173442483E-1,-3.417788446E-1,1.931859851E-1
6.577287452E0,-4.108065665E-1,-3.790415823E-1,2.390008420E-1
6.587037764E0,-3.949240744E-1,-2.977965772E-1,2.298378795E-1
6.596787973E0,-3.008508980E-1,-1.603520066E-1,2.060141414E-1
6.606538285E0,-1.866191924E-1,-2.229656465E-2,1.773035079E-1
6.616288494E0,-6.261363626E-2,6.200277433E-2,1.577558219E-1
6.626038806E0,8.093958348E-2,8.888082206E-2,1.559232324E-1
6.635789119E0,1.878409237E-1,3.756818548E-2,1.504254490E-1
6.645539431E0,2.049451321E-1,-8.521563560E-2,1.369864196E-1
6.655289639E0,1.951712966E-1,-1.884517819E-1,1.021671370E-1
6.665039952E0,2.318231910E-1,-2.489273995E-1,7.528908551E-2
6.674790160E0,2.666424811E-1,-2.996291816E-1,6.429351866E-2
6.684540473E0,2.660316229E-1,-3.753764033E-1,8.567378670E-2
6.694290785E0,2.568686306E-1,-3.930914998E-1,1.992946416E-1
6.704040994E0,3.216203153E-1,-3.149007857E-1,3.404043913E-1
6.713791306E0,4.810560048E-1,-2.434296161E-1,4.075995386E-1
6.723541514E0,6.392700076E-1,-1.689041108E-1,3.862192631E-1
6.733291827E0,7.260127664E-1,-4.062250629E-2,3.287979662E-1
6.743042139E0,6.178897023E-1,4.245510325E-2,2.506072819E-1
6.752792348E0,1.884517819E-1,2.138026757E-3,1.742491722E-1
6.762542660E0,-3.649916947E-1,-1.010981202E-1,1.400407553E-1
6.772292869E0,-7.962622643E-1,-1.304196268E-1,1.547015011E-1
6.782043181E0,-1.107803226E0,-1.927278340E-1,1.705839932E-1
6.791793389E0,-1.168889761E0,-3.656025827E-1,1.259908676E-1
6.801543702E0,-9.636391997E-1,-4.761691093E-1,4.963276163E-2
6.811293910E0,-7.211259007E-1,-4.914407134E-1,-2.611446939E-2
6.821044223E0,-6.368265152E-1,-3.466657698E-1,-1.238528341E-1
6.830794535E0,-7.327322960E-1,9.193515033E-2,-2.606865466E-1
6.840544744E0,-8.243620396E-1,7.388409376E-1,-4.231765866E-1
6.850295056E0,-8.518509269E-1,1.311832070E0,-6.039925218E-1
6.860045369E0,-8.897245526E-1,1.708894253E0,-7.640390992E-1
6.869795577E0,-9.392045736E-1,1.873216867E0,-8.269581795E-1
6.879545889E0,-9.361502528E-1,1.738826632E0,-7.451022863E-1
6.889296098E0,-7.797688842E-1,1.208595991E0,-4.781544209E-1
6.899046410E0,-5.164861679E-1,3.759872615E-1,-1.128572673E-1
6.908796723E0,-1.676823795E-1,-5.256491303E-1,2.231183648E-1
6.918546931E0,2.165515572E-1,-1.297782183E0,4.192059636E-1
6.928297244E0,5.073232055E-1,-1.763261199E0,3.935496211E-1
6.938047452E0,6.765327454E-1,-1.710115910E0,2.518289983E-1
6.947797660E0,7.858775258E-1,-1.195767760E0,8.384118974E-2
6.957547973E0,8.005383015E-1,-4.407389462E-1,-6.765327603E-2
6.967298285E0,6.710349321E-1,3.668242991E-1,-1.605047137E-1
6.977048598E0,4.841103256E-1,9.618065953E-1,-2.026543915E-1
6.986798806E0,2.800815105E-1,1.171333194E0,-2.270889878E-1
6.996549119E0,8.582650125E-2,1.044884205E0,-2.276998460E-1
7.006299327E0,-3.451386094E-2,6.991347671E-1,-1.934914142E-1
7.016049639E0,-1.383608729E-1,1.994473487E-1,-1.366809905E-1
7.025799848E0,-1.908952445E-1,-3.155116439E-1,-8.964440972E-2
7.035550160E0,-1.572976857E-1,-6.588176489E-1,-7.498364896E-2
7.045300369E0,-9.071341902E-2,-7.718276381E-1,-9.819651395E-2
7.055050681E0,-1.527161920E-3,-7.412844300E-1,-1.269071549E-1
7.064800994E0,8.338304609E-2,-6.557633281E-1,-1.201876476E-1
7.074551202E0,1.188132018E-1,-5.299251676E-1,-1.067486182E-1
7.084301514E0,1.731801629E-1,-3.277289569E-1,-1.256854236E-1
7.094051723E0,2.648098767E-1,-5.345066637E-2,-1.904370934E-1
7.103802035E0,2.922987938E-1,1.921169758E-1,-2.612974048E-1
7.113552244E0,2.031125426E-1,3.185659945E-1,-2.948949635E-1
7.123302556E0,1.252272818E-2,3.698786199E-1,-2.722929716E-1
7.133052764E0,-1.774562150E-1,3.185659945E-1,-2.240346521E-1
7.142803077E0,-2.587012351E-1,1.298087686E-1,-1.934914142E-1
7.152553389E0,-2.067777216E-1,-4.978547990E-2,-2.008218020E-1
7.162303598E0,-3.023780696E-2,-1.554650813E-1,-2.631300092E-1
7.172053910E0,2.690859437E-1,-2.385426909E-1,-3.388772309E-1
7.181804119E0,6.368265152E-1,-1.817322671E-1,-3.480401933E-1
7.191554431E0,9.355394244E-1,1.130099874E-2,-2.307541668E-1
7.201304639E0,9.813542962E-1,1.646280587E-1,1.527161949E-4
7.211054848E0,7.125737667E-1,1.731801629E-1,2.903134823E-1
7.220805160E0,3.503309488E-1,6.017018110E-2,5.297724605E-1
7.230555473E0,1.438586563E-1,-1.298087686E-1,5.444332361E-1
7.240305681E0,9.926552325E-2,-2.843575478E-1,3.312414289E-1
7.250055994E0,5.528326333E-2,-2.947422564E-1,1.021671370E-1
7.259806202E0,9.162971983E-4,-2.244928032E-1,-2.672533318E-2
7.269556514E0,4.734202102E-2,-1.023198515E-1,-1.695149764E-2
7.279306827E0,1.988364905E-1,-3.329212964E-2,1.149952933E-1
7.289057035E0,3.155116439E-1,4.245510325E-2,2.396117151E-1
7.298807348E0,3.356702030E-1,2.379318327E-1,3.104720116E-1
7.308557556E0,1.475238502E-1,4.602866173E-1,3.275762498E-1
7.318307869E0,-2.623664141E-1,6.215549111E-1,2.982547283E-1
7.328058077E0,-6.832522750E-1,6.539307237E-1,2.041815519E-1
7.337808389E0,-9.196569324E-1,5.641336441E-1,4.169152305E-2
7.347558598E0,-1.014951825E0,4.236347377E-1,-1.812741160E-1
7.357308910E0,-9.899063706E-1,2.208276242E-1,-3.706422150E-1
7.367059119E0,-8.237511516E-1,-4.673115537E-2,-4.378373325E-1
7.376809431E0,-5.525271893E-1,-3.863719702E-1,-3.633118272E-1
7.386559639E0,-2.629773021E-1,-6.722567081E-1,-2.313650399E-1
7.396309952E0,-1.175914705E-1,-6.918043494E-1,-9.086613357E-2
7.406060160E0,-1.383608729E-1,-5.207622051E-1,3.863719851E-2
7.415810369E0,-2.031125426E-1,-3.112356067E-1,1.223256737E-1
7.425560681E0,-2.415970266E-1,-2.012799382E-1,1.437059343E-1
7.435310889E0,-2.623664141E-1,-1.585194170E-1,1.192713454E-1
7.445061202E0,-2.819140851E-1,-6.688969582E-2,7.528908551E-2
7.454811514E0,-3.686569035E-1,7.177661359E-2,1.420260593E-2
7.464561723E0,-4.902189970E-1,2.049451321E-1,-7.803797722E-2
7.474312035E0,-4.944950342E-1,3.454440236E-1,-1.702785641E-1
7.484062244E0,-3.338375986E-1,3.998109996E-1,-2.503018379E-1
7.493812556E0,-1.267544478E-1,2.929096520E-1,-2.930623889E-1
7.503562764E0,-2.138026757E-3,9.254601598E-2,-2.875646055E-1
7.513313077E0,4.856374860E-2,-8.704823256E-2,-2.307541668E-1
7.523063285E0,8.155044913E-2,-2.134972364E-1,-1.379027218E-1
7.532813598E0,1.298087686E-1,-3.039052188E-1,-4.382954910E-2
7.542563910E0,1.805105358E-1,-3.497200906E-1,2.703076601E-2
7.552314119E0,1.890626550E-1,-3.210094273E-1,9.544762224E-2
7.562064327E0,1.658497900E-1,-2.464839369E-1,1.528689116E-1
7.571814639E0,1.689041108E-1,-1.322522312E-1,1.443168074E-1
7.581564952E0,2.318231910E-1,5.406153202E-2,5.268708616E-2
7.591315160E0,3.723220825E-1,2.892444730E-1,-8.597921580E-2
7.601065369E0,5.830704570E-1,4.694495797E-1,-2.270889878E-1
7.610815681E0,8.029817343E-1,5.207622051E-1,-3.113883138E-1
7.620565994E0,9.666935205E-1,3.778198659E-1,-3.370446563E-1
7.630316202E0,9.935715795E-1,2.351829410E-2,-3.003927469E-1
7.640066514E0,8.023709059E-1,-4.761691093E-1,-1.941022873E-1
7.649816723E0,4.431824088E-1,-8.970549107E-1,-1.678351015E-1
7.659566931E0,4.062250629E-2,-8.090903759E-1,-3.095557392E-1
7.669317139E0,-3.100138903E-1,-2.147189677E-1,-4.579958618E-1
7.679067556E0,-4.450149834E-1,6.575959325E-1,-4.885390997E-1
7.688817764E0,-3.002400398E-1,1.442557216E0,-2.784016132E-1
7.698567973E0,-1.145371497E-1,1.740659237E0,7.834340632E-2
7.708318285E0,1.175914705E-1,1.606268883E0,4.137081802E-1
7.718068494E0,3.924806118E-1,1.123074889E0,6.244565248E-1
7.727818806E0,5.103775263E-1,5.812378526E-1,7.325795889E-1
7.737569014E0,3.765981495E-1,1.933387071E-1,7.582359314E-1
7.747319327E0,9.193515033E-2,-7.605266571E-2,6.708822250E-1
7.757069535E0,-3.521635532E-1,-2.489273995E-1,4.833467603E-1
7.766819848E0,-8.231402636E-1,-1.371391416E-1,2.298378795E-1
7.776570056E0,-1.108414173E0,1.902843714E-1,-3.405570984E-2
7.786320369E0,-1.140789986E0,4.511236250E-1,-1.470656991E-1
7.796070577E0,-9.471458197E-1,5.268708467E-1,-9.025526792E-2
7.805820889E0,-6.105593443E-1,3.185659945E-1,1.053741761E-2
7.815571098E0,-2.464839369E-1,-7.238747925E-2,8.506292105E-2
7.825321410E0,6.017018110E-2,-3.875937164E-1,6.429351866E-2
7.835071619E0,2.794706225E-1,-4.584540129E-1,-7.559451461E-2
7.844821931E0,4.242455959E-1,-3.124573231E-1,-2.435823381E-1
7.854572139E0,5.409207344E-1,-7.971785218E-2,-3.321577311E-1
7.864322452E0,6.178897023E-1,6.688969582E-2,-3.248273432E-1
7.874072660E0,6.099484563E-1,7.055488229E-2,-2.606865466E-1
7.883822973E0,5.775726438E-1,-1.802051067E-2,-1.342375278E-1
7.893573181E0,5.592467189E-1,-9.254601598E-2,6.551524997E-2
7.903323494E0,5.225948095E-1,-1.627954692E-1,2.634354234E-1
7.913073702E0,4.309650958E-1,-2.324340492E-1,3.935496211E-1
7.922823910E0,2.226602137E-1,-3.240637779E-1,4.644099474E-1
7.932574223E0,-3.634645417E-2,-3.686569035E-1,4.680751264E-1
7.942324431E0,-1.878409237E-1,-3.289506733E-1,3.275762498E-1
7.952074744E0,-1.829539984E-1,-1.921169758E-1,7.895427197E-2
7.961824952E0,-5.039634556E-2,-4.734202102E-2,-1.947131455E-1
7.971575264E0,1.621845961E-1,4.734202102E-2,-4.091266990E-1
7.981325473E0,4.187478125E-1,1.188132018E-1,-5.331322551E-1
7.991075785E0,6.863065958E-1,1.908952445E-1,-5.832231641E-1
8.000825994E0,8.659008145E-1,1.915061027E-1,-5.765036345E-1
8.010576306E0,9.074396491E-1,1.023198515E-1,-5.135845542E-1
8.020326514E0,7.901535630E-1,5.192350596E-3,-3.822486401E-1
8.030076827E0,5.342012644E-1,-1.689041108E-1,-2.093739063E-1
8.039827035E0,2.306014597E-1,-3.344484568E-1,-4.382954910E-2
8.049577348E0,-3.329212964E-2,-4.444041252E-1,5.757400393E-2
8.059327556E0,-1.872300506E-1,-5.177078843E-1,1.021671370E-1
8.069077869E0,-1.572976857E-1,-3.973675370E-1,1.101083755E-1
8.078828077E0,1.374445762E-2,-2.067777216E-1,2.519817278E-2
8.088578285E0,1.744018942E-1,-6.078104675E-2,-1.256854236E-1
8.098328598E0,2.257145345E-1,5.100720748E-2,-2.185368687E-1
8.108078806E0,2.596175298E-2,-2.412915789E-2,-1.983783394E-1
8.117829119E0,-5.122101307E-1,-2.532034516E-1,1.374445739E-3
8.127579327E0,-1.113911867E0,-4.254673123E-1,3.489564955E-1
8.137329639E0,-1.338099241E0,-7.589994669E-1,7.228057384E-1
8.147079848E0,-1.072373152E0,-1.192713499E0,9.543235302E-1
8.156830160E0,-4.737256467E-1,-1.317329884E0,9.201150537E-1
8.166580369E0,2.379318327E-1,-1.130405307E0,7.057015300E-1
8.176330681E0,8.536835313E-1,-7.730493546E-1,3.605629504E-1
8.186080889E0,1.209206820E0,-3.039052188E-1,-5.054906011E-2
8.195831098E0,1.172554970E0,1.951712966E-1,-4.048506320E-1
8.205581410E0,6.759218574E-1,6.520981789E-1,-6.779071689E-1
8.215331619E0,-1.896735132E-1,1.051603675E0,-8.477275968E-1
8.225081931E0,-1.009454012E0,1.294727921E0,-9.411898851E-1
8.234832139E0,-1.428507328E0,1.306334376E0,-8.788816929E-1
8.244582452E0,-1.403461814E0,1.063210130E0,-5.435169339E-1
8.254332660E0,-1.064431906E0,4.682278633E-1,-1.679878100E-3
8.264082973E0,-5.396990180E-1,-1.750127524E-1,5.456549525E-1
8.273833181E0,-1.377500147E-1,-5.140427351E-1,8.859066367E-1
8.283583389E0,-2.367101014E-1,-2.965748608E-1,9.298889041E-1
8.293333702E0,-4.804451466E-1,-7.360920310E-2,7.221949100E-1
8.303083910E0,-4.187478125E-1,2.226602137E-1,4.045451880E-1
8.312834223E0,-1.572976857E-1,5.549706817E-1,9.544762224E-2
8.322584431E0,1.224783882E-1,8.585704565E-1,-1.488982886E-1
8.332334744E0,1.908952445E-1,1.055268884E0,-3.119991720E-1
8.342084952E0,9.132428467E-2,1.158505082E0,-3.541488647E-1
8.351835264E0,3.359756200E-3,9.899063706E-1,-2.979492843E-1
8.361585473E0,-3.054323897E-4,4.804451466E-1,-1.989891976E-1
8.371335785E0,-2.779434808E-2,-2.049451321E-1,-1.389717404E-2
8.381085994E0,-2.141081095E-1,-9.721912742E-1,1.895207912E-1
8.390836202E0,-4.615083337E-1,-1.537852049E0,3.233001828E-1
8.400586514E0,-6.380482912E-1,-1.757763386E0,3.477347791E-1
8.410336723E0,-6.575959325E-1,-1.744324327E0,2.591593862E-1
8.420087035E0,-5.079340935E-1,-1.571449637E0,9.361502528E-2
8.429837244E0,-2.800815105E-1,-1.210428596E0,-1.043051630E-1
8.439587556E0,-9.743293375E-2,-7.669407129E-1,-2.832885385E-1
8.449337764E0,1.374445762E-2,-3.845393658E-1,-3.785834610E-1
8.459087973E0,1.261435747E-1,-8.338304609E-2,-4.152353406E-1
8.468838285E0,2.984074354E-1,1.328630894E-1,-4.451677203E-1
8.478588494E0,4.645626545E-1,1.542433500E-1,-4.127918780E-1
8.488338806E0,5.433642268E-1,-4.123337194E-2,-3.242164850E-1
8.498089014E0,5.140427351E-1,-3.344484568E-1,-2.057087123E-1
8.507839327E0,3.839285076E-1,-5.390881896E-1,5.650499370E-3
8.517589535E0,2.550360560E-1,-6.154462695E-1,2.359465212E-1
8.527339744E0,2.654207349E-1,-6.301070452E-1,3.538434207E-1
8.537090056E0,3.979783952E-1,-3.857611120E-1,2.872591615E-1
8.546840264E0,5.623010397E-1,3.417788446E-1,1.253799945E-1
8.556590577E0,6.905826330E-1,1.293506145E0,9.117157012E-2
8.566340785E0,6.905826330E-1,1.837786674E0,2.970330119E-1
8.576091098E0,4.957167804E-1,1.499978423E0,5.810851455E-1
8.585841306E0,2.929096520E-1,5.989528894E-1,8.645263910E-1
8.595591514E0,2.635881603E-1,-3.149007857E-1,1.067333460E0
8.605341827E0,4.437932670E-1,-8.298597932E-1,9.915862679E-1
8.615092035E0,8.316923976E-1,-7.412844300E-1,6.873756051E-1
8.624842348E0,1.218980670E0,-1.615737379E-1,3.856084049E-1
8.634592556E0,1.266628146E0,4.114174247E-1,2.261726856E-1
8.644342869E0,8.848376274E-1,9.715804458E-1,1.430950761E-1
8.654093077E0,2.318231910E-1,1.592218995E0,7.528908551E-2
8.663843285E0,-4.590648711E-1,2.200029612E0,-4.566214234E-2
8.673593494E0,-1.010675788E0,2.501796722E0,-1.983783394E-1
8.683343806E0,-1.258076072E0,2.362519503E0,-2.069304436E-1
8.693094014E0,-1.036332130E0,1.667355418E0,6.872228812E-3
8.702844327E0,-5.048797131E-1,5.616901517E-1,2.573267817E-1
8.712594535E0,1.493564397E-1,-3.827067912E-1,3.092502952E-1
8.722344848E0,7.021890879E-1,-9.196569324E-1,1.003345400E-1
8.732095056E0,9.911280870E-1,-9.972367287E-1,-2.118173689E-1
8.741845369E0,1.007010579E0,-7.266236544E-1,-4.439459741E-1
8.751595577E0,8.665117025E-1,-3.161225319E-1,-5.386300087E-1
8.761345889E0,7.351757884E-1,9.621120244E-2,-5.404626131E-1
8.771096098E0,6.649262905E-1,3.906480372E-1,-4.915934205E-1
8.780846306E0,4.712821841E-1,5.928442478E-1,-4.305069447E-1
8.790596514E0,8.765909821E-2,6.356047988E-1,-3.724747896E-1
8.800346827E0,-3.368919194E-1,4.193586707E-1,-2.478583902E-1
8.810097139E0,-6.466003656E-1,7.299833745E-2,-3.283398226E-2
8.819847348E0,-8.127555847E-1,-3.717112243E-1,2.176205814E-1
8.829597556E0,-8.854485154E-1,-7.950404882E-1,4.082103968E-1
8.839347869E0,-8.518509269E-1,-1.056490660E0,4.925097227E-1
8.849098077E0,-7.516691089E-1,-1.253799915E0,4.399753511E-1
8.858848389E0,-6.612611413E-1,-1.392466307E0,3.110828996E-1
8.868598598E0,-6.044507027E-1,-1.461493969E0,1.492037177E-1
8.878348806E0,-5.531380773E-1,-1.474322200E0,-2.367101051E-2
8.888099119E0,-4.859429300E-1,-1.448054910E0,-2.044869810E-1
8.897849327E0,-4.364628792E-1,-1.424842119E0,-3.669770062E-1
8.907599639E0,-4.419606626E-1,-1.404683590E0,-4.812087417E-1
8.917349848E0,-5.317577720E-1,-1.299003959E0,-5.227475166E-1
8.927100056E0,-7.034108043E-1,-1.047327638E0,-5.160280466E-1
8.936850369E0,-8.811724186E-1,-6.661480665E-1,-4.604393244E-1
8.946600577E0,-9.758564830E-1,-3.454440236E-1,-3.657552898E-1
8.956350889E0,-9.471458197E-1,-7.055488229E-2,-2.826776803E-1
8.966101098E0,-7.858775258E-1,2.782489061E-1,-2.515235841E-1
8.975851306E0,-4.590648711E-1,7.058542371E-1,-2.466366589E-1
8.985601619E0,-7.727439702E-2,1.076038361E0,-2.105956376E-1
8.995351827E0,2.110537887E-1,1.171944022E0,-1.269071549E-1
9.005102035E0,2.079994529E-1,1.105359793E0,-1.878409274E-2
9.014852348E0,-1.371391416E-1,1.003345370E0,1.266017258E-1
9.024602556E0,-5.513054729E-1,8.097012639E-1,3.226893246E-1
9.034352869E0,-6.594285369E-1,5.421425104E-1,4.943423271E-1
9.044103077E0,-3.778198659E-1,5.244274139E-1,4.796815813E-1
9.053853285E0,7.971785218E-2,7.840449214E-1,3.178023994E-1
9.063603598E0,4.670061171E-1,9.807434082E-1,1.895207912E-1
9.073353806E0,6.930260658E-1,1.010675788E0,1.125518382E-1
9.083104119E0,6.753110290E-1,9.477567077E-1,3.252854943E-2
9.092854327E0,4.437932670E-1,8.585704565E-1,2.641990222E-2
9.102604535E0,1.835648715E-1,7.388409376E-1,1.504254490E-1
9.112354848E0,-9.162971983E-4,6.142245531E-1,3.006981909E-1
9.122105056E0,-1.658497900E-1,6.166679859E-1,2.982547283E-1
9.131855369E0,-2.470948100E-1,6.655371785E-1,1.779143661E-1
9.141605577E0,-2.892444730E-1,3.967566788E-1,6.246092543E-2
9.151355785E0,-3.375027776E-1,-2.849684060E-1,1.359174121E-2
9.161106098E0,-1.377500147E-1,-9.422588944E-1,8.811724186E-2
9.170856306E0,3.509418070E-1,-1.232419729E0,1.950185746E-1
9.180606619E0,8.799507022E-1,-1.090699077E0,2.536616027E-1
9.190356827E0,1.207985044E0,-5.897899270E-1,2.762635946E-1
9.200107035E0,1.314275622E0,5.803215317E-3,2.842048407E-1
9.209857348E0,1.305112600E0,5.073232055E-1,1.950185746E-1
9.219607556E0,1.178663611E0,9.086613655E-1,2.031125315E-2
9.229357764E0,9.648609161E-1,1.174387574E0,-1.207985133E-1
9.239108077E0,7.571669221E-1,1.170111537E0,-1.678351015E-1
9.248858285E0,6.007854939E-1,9.752455950E-1,-1.684459597E-1
9.258608494E0,4.877755344E-1,6.056724191E-1,-1.519526094E-1
9.268358806E0,3.833176494E-1,9.193515033E-2,-7.987056673E-2
9.278109014E0,2.507599890E-1,-3.539961278E-1,7.956513762E-2
9.287859327E0,3.695731983E-2,-7.816014886E-1,2.780961990E-1
9.297609535E0,-2.330449075E-1,-1.201876402E0,4.558578432E-1
9.307359744E0,-3.967566788E-1,-1.445000648E0,5.206094980E-1
9.317110056E0,-4.608974755E-1,-1.413846493E0,4.558578432E-1
9.326860264E0,-4.327977002E-1,-1.263573766E0,2.396117151E-1
9.336610473E0,-2.977965772E-1,-1.008232355E0,-1.073594838E-1
9.346360785E0,-1.194240674E-1,-6.441569328E-1,-4.757109582E-1
9.356110994E0,1.218675226E-1,-2.006690800E-1,-7.261655331E-1
9.365861202E0,3.961458206E-1,2.348775119E-1,-8.129082918E-1
9.375611514E0,5.561923981E-1,5.262600183E-1,-7.206677198E-1
9.385361723E0,4.578431547E-1,6.655371785E-1,-4.897608459E-1
9.395112035E0,8.460476995E-2,6.747001410E-1,-1.214093715E-1
9.404862244E0,-4.034761786E-1,5.360338688E-1,2.554942071E-1
9.414612452E0,-7.095194459E-1,2.984074354E-1,5.175551772E-1
9.424362764E0,-7.119628787E-1,1.084285006E-1,6.415607333E-1
9.434112973E0,-4.743365049E-1,6.811141968E-2,5.890263915E-1
9.443863181E0,-1.261435747E-1,2.360992432E-1,4.466948807E-1
9.453613494E0,1.524107605E-1,4.511236250E-1,4.002691507E-1
9.463363702E0,2.935205400E-1,5.885682106E-1,4.992292523E-1
9.473113910E0,3.741546869E-1,6.148353815E-1,6.562215090E-1
9.482864223E0,3.454440236E-1,4.370737374E-1,8.297070861E-1
9.492614431E0,2.244928032E-1,1.493564397E-1,9.097303748E-1
9.502364639E0,2.519817352E-1,-1.218675226E-1,8.590285778E-1
9.512114952E0,5.140427351E-1,-3.112356067E-1,7.606793642E-1
9.521865160E0,8.707877398E-1,-3.619373739E-1,5.957458615E-1
9.531615473E0,1.113301039E0,-2.977965772E-1,3.868301213E-1
9.541365681E0,1.193935156E0,-1.939495653E-1,1.131627038E-1
9.551115889E0,1.057712317E0,2.290742844E-2,-2.393062711E-1
9.560866202E0,5.525271893E-1,3.894262910E-1,-5.807796717E-1
9.570616410E0,-1.609628648E-1,6.637045741E-1,-8.538362384E-1
9.580366619E0,-7.693842053E-1,5.720748901E-1,-1.082910538E0
9.590116931E0,-1.065042734E0,1.420260668E-1,-1.124449372E0
9.599867139E0,-9.294307828E-1,-4.700604379E-1,-8.886555433E-1
9.609617348E0,-5.225948095E-1,-1.146287799E0,-5.331322551E-1
9.619367660E0,-2.474002354E-2,-1.597716808E0,-2.973384261E-1
9.629117869E0,4.828886092E-1,-1.545182467E0,-2.851211429E-1
9.638868077E0,8.286380768E-1,-1.027169108E0,-4.311178327E-1
9.648618285E0,9.251546860E-1,-3.179551065E-1,-6.137663722E-1
9.658368598E0,9.330959320E-1,3.313941360E-1,-7.652608752E-1
9.668118806E0,9.844086170E-1,7.357866168E-1,-8.226821423E-1
9.677869119E0,9.770781994E-1,8.353576064E-1,-7.841976881E-1
9.687619327E0,8.182533979E-1,6.863065958E-1,-6.656898856E-1
9.697369535E0,5.574141145E-1,3.692677617E-1,-4.451677203E-1
9.707119744E0,2.092211843E-1,-4.978547990E-2,-1.537852138E-1
9.716870056E0,-1.915061027E-1,-4.444041252E-1,9.850194305E-2
9.726620264E0,-5.366446972E-1,-6.783653498E-1,2.634354234E-1
9.736370473E0,-6.979129910E-1,-7.162389755E-1,3.452913165E-1
9.746120785E0,-7.736602426E-1,-6.068941355E-1,3.477347791E-1
9.755870994E0,-7.987056971E-1,-4.077522457E-1,3.098611534E-1
9.765621202E0,-7.101303339E-1,-1.615737379E-1,2.444986254E-1
9.775371514E0,-5.170970559E-1,2.351829410E-2,1.638644785E-1
9.785121723E0,-3.246746361E-1,1.450803876E-1,7.284562290E-2
9.794871931E0,-2.134972364E-1,2.794706225E-1,7.635809598E-4
9.804622139E0,-1.713475734E-1,3.466657698E-1,-6.887500733E-2
9.814372452E0,-2.073885947E-1,3.149007857E-1,-1.012508348E-1
9.824122660E0,-3.026835024E-1,2.666424811E-1,-7.070759684E-2
9.833872973E0,-3.979783952E-1,2.141081095E-1,3.069595434E-2
9.843623181E0,-4.108065665E-1,1.029307172E-1,1.400407553E-1
9.853373389E0,-3.362810612E-1,-3.970621154E-3,2.200640440E-1
9.863123702E0,-1.695149690E-1,-7.910698652E-2,2.890917659E-1
9.872873910E0,-7.024944760E-3,-8.826996386E-2,3.220784664E-1
9.882624119E0,1.383608729E-1,4.734202102E-2,2.994764447E-1
9.892374431E0,3.851502538E-1,2.574795187E-1,1.925751269E-1
9.902124535E0,6.771436334E-1,4.309650958E-1,3.191768378E-2
9.911874848E0,7.589994669E-1,4.327977002E-1,-7.620538026E-2
9.921625056E0,4.193586707E-1,1.927278340E-1,5.940660089E-2
9.931375369E0,-9.376774728E-2,-2.825249732E-1,3.752236962E-1
9.941125577E0,-4.425715208E-1,-8.219185472E-1,6.110175252E-1
9.950875785E0,-4.896081090E-1,-1.055879712E0,7.063124180E-1
9.960626098E0,-2.703076601E-1,-7.510582209E-1,6.482802629E-1
9.970376306E0,1.191186346E-2,-1.023198515E-1,4.411970973E-1
9.980126514E0,1.731801629E-1,5.952877402E-1,2.188423127E-1
9.989876827E0,1.823431402E-1,1.145676851E0,2.092211880E-2
9.999627035E0,-2.718348242E-2,1.453552723E0,-1.293506175E-1
1.000937724E1,-4.523453712E-1,1.378416419E0,-1.928805560E-1
1.001912745E1,-9.984585047E-1,8.738420606E-1,-2.057087123E-1
1.002887776E1,-1.366199136E0,1.182023361E-1,-1.806632578E-1
1.003862797E1,-1.434615970E0,-6.099484563E-1,-1.574503928E-1
1.004837818E1,-1.224478483E0,-1.079703450E0,-2.240346521E-1
1.005812849E1,-8.237511516E-1,-1.289230108E0,-3.572031856E-1
1.006787870E1,-3.466657698E-1,-1.207985044E0,-4.146244824E-1
1.007762891E1,1.090393662E-1,-9.367611408E-1,-4.488328993E-1
1.008737912E1,4.828886092E-1,-5.604684353E-1,-4.818195999E-1
1.009712943E1,7.211259007E-1,-2.104429156E-1,-4.885390997E-1
1.010687964E1,8.158099055E-1,1.090393662E-1,-4.390590489E-1
1.011662985E1,7.913753390E-1,2.806923687E-1,-2.838993967E-1
1.012638016E1,6.264418364E-1,1.933387071E-1,-6.765327603E-2
1.013613037E1,3.790415823E-1,2.962694131E-2,1.375972927E-1
1.014588058E1,6.811141968E-2,-1.298087686E-1,2.842048407E-1
1.015563079E1,-2.177732885E-1,-2.721402645E-1,3.752236962E-1
1.016538110E1,-4.181369543E-1,-3.662134409E-1,4.393644929E-1
1.017513131E1,-5.641336441E-1,-3.484983444E-1,4.454731345E-1
1.018488151E1,-6.704241037E-1,-2.831358314E-1,3.856084049E-1
1.019463183E1,-6.966912746E-1,-2.000582218E-1,2.988655865E-1
1.020438204E1,-6.294961572E-1,-1.365282834E-1,2.145662606E-1
1.021413224E1,-4.883863926E-1,-8.155044913E-2,1.345429718E-1
1.022388245E1,-2.886336148E-1,1.557705179E-2,3.191768378E-2
1.023363276E1,-7.177661359E-2,1.261435747E-1,-7.131846249E-2
1.024338297E1,1.304196268E-1,2.104429156E-1,-1.330158114E-1
1.025313318E1,3.081812859E-1,2.324340492E-1,-1.782197952E-1
1.026288339E1,4.089739621E-1,1.719584316E-1,-2.002109289E-1
1.027263370E1,4.077522457E-1,1.010981202E-1,-1.922696829E-1
1.028238381E1,3.729329407E-1,7.605266571E-2,-1.696676910E-1
1.029213412E1,2.984074354E-1,7.238747925E-2,-1.354592592E-1
1.030188433E1,1.414151937E-1,9.743293375E-2,-1.055268943E-1
1.031163464E1,-4.428769648E-2,1.463021189E-1,-8.170316368E-2
1.032138485E1,-1.536324918E-1,1.585194170E-1,-4.566214234E-2
1.033113506E1,-1.096502244E-1,1.389717311E-1,-6.566796452E-3
1.034088526E1,1.023198515E-1,1.182023361E-1,-2.183841541E-2
1.035063558E1,3.136790693E-1,5.406153202E-2,-8.231402934E-2
1.036038578E1,3.894262910E-1,-5.894844979E-2,-1.715002805E-1
1.037013599E1,3.069595397E-1,-1.957821548E-1,-2.570213675E-1
1.037988620E1,5.100720748E-2,-3.069595397E-1,-2.631300092E-1
1.038963651E1,-2.580903769E-1,-3.399462402E-1,-1.794415265E-1
1.039938672E1,-3.478874862E-1,-3.246746361E-1,-4.123337101E-3
1.040913693E1,-2.373209596E-1,-3.906480372E-1,2.328922004E-1
1.041888714E1,3.207040206E-2,-5.476402640E-1,4.540252388E-1
1.042863745E1,3.106247485E-1,-6.319395900E-1,5.719221234E-1
1.043838766E1,4.108065665E-1,-5.720748901E-1,5.664243698E-1
1.044813787E1,3.820959330E-1,-4.932733178E-1,4.448622763E-1
1.045788818E1,2.916879356E-1,-3.802633286E-1,2.457203567E-1
1.046763839E1,7.422006875E-2,-1.572976857E-1,1.527161949E-4
1.047738860E1,-3.289506733E-1,1.627954692E-1,-2.759581506E-1
1.048713881E1,-8.695660233E-1,5.586358309E-1,-4.983129501E-1
1.049688912E1,-1.253799915E0,9.679152369E-1,-6.522508860E-1
1.050663933E1,-1.270293355E0,1.226921916E0,-6.760746241E-1
1.051638954E1,-1.031445146E0,1.153618097E0,-5.410735011E-1
1.052613974E1,-7.089085579E-1,7.980948091E-1,-3.003927469E-1
1.053588995E1,-4.474584460E-1,3.081812859E-1,-2.672533318E-2
1.054564026E1,-1.970038861E-1,-1.414151937E-1,2.047924101E-1
1.055539047E1,3.329212964E-2,-4.645626545E-1,3.141372204E-1
1.056514068E1,1.481347084E-1,-6.490437984E-1,2.756527364E-1
1.057489089E1,1.408043355E-1,-6.392700076E-1,1.589775532E-1
1.058464120E1,7.483093441E-2,-5.109884143E-1,7.635809598E-4
1.059439141E1,1.191186346E-2,-3.277289569E-1,-1.452330947E-1
1.060414162E1,-7.788526267E-2,-1.249218509E-1,-2.313650399E-1
1.061389183E1,-2.244928032E-1,5.528326333E-2,-2.515235841E-1
1.062364204E1,-3.833176494E-1,2.116646469E-1,-2.344193608E-1
1.063339235E1,-4.889972508E-1,3.051269650E-1,-1.763872057E-1
1.064314256E1,-5.152644515E-1,3.051269650E-1,-2.977965772E-2
1.065289276E1,-4.480693042E-1,2.079994529E-1,1.644753367E-1
1.066264297E1,-3.356702030E-1,-1.802051067E-2,3.178023994E-1
1.067239318E1,-2.147189677E-1,-1.945604384E-1,4.033234715E-1
1.068214339E1,-9.804379940E-2,-2.238819450E-1,4.075995386E-1
1.069189370E1,9.468403645E-3,-1.695149690E-1,3.501782417E-1
1.070164391E1,8.155044913E-2,-4.856374860E-2,2.457203567E-1
1.071139412E1,1.640172005E-1,1.774562150E-1,8.445205539E-2
1.072114443E1,2.501491308E-1,3.918697536E-1,-9.269873053E-2
1.073089464E1,2.892444730E-1,5.201513767E-1,-2.454149276E-1
1.074064485E1,2.641990185E-1,5.342012644E-1,-3.498727977E-1
1.075039506E1,1.872300506E-1,4.541779757E-1,-3.834703565E-1
1.076014526E1,1.255327165E-1,2.134972364E-1,-3.321577311E-1
1.076989558E1,1.786779463E-1,-1.627954692E-1,-2.002109289E-1
1.077964579E1,3.417788446E-1,-4.761691093E-1,-3.833176568E-2
1.078939599E1,5.867356062E-1,-5.775726438E-1,1.461493969E-1
1.079914620E1,8.463531733E-1,-4.291325212E-1,3.379609287E-1
1.080889641E1,9.850194454E-1,-1.010981202E-1,4.601338804E-1
1.081864672E1,9.618065953E-1,2.782489061E-1,4.631882310E-1
1.082839693E1,6.374374032E-1,4.450149834E-1,3.520108163E-1
1.083814714E1,1.426369250E-1,2.189950198E-1,1.320995092E-1
1.084789735E1,-1.505781710E-1,-3.100138903E-1,-1.183550507E-1
1.085764756E1,-1.731801629E-1,-8.732311726E-1,-3.443750143E-1
1.086739787E1,-2.718348242E-2,-1.276401997E0,-4.610501826E-1
1.087714808E1,1.908952445E-1,-1.446833253E0,-4.024071693E-1
1.088689829E1,3.973675370E-1,-1.352149248E0,-1.568395346E-1
1.089664849E1,4.828886092E-1,-1.179274440E0,1.229365394E-1
1.090639870E1,3.827067912E-1,-9.538653493E-1,3.110828996E-1
1.091614901E1,6.994401664E-2,-5.781835318E-1,4.124864340E-1
1.092589922E1,-4.315759540E-1,-9.437860548E-2,4.265363216E-1
1.093564943E1,-9.532544613E-1,3.521635532E-1,3.104720116E-1
1.094539964E1,-1.347262263E0,6.997455955E-1,8.689551800E-2
1.095514985E1,-1.528689146E0,1.000901937E0,-1.672242284E-1
1.096490016E1,-1.421787739E0,1.103527188E0,-3.810268939E-1
1.097465037E1,-1.027169108E0,8.946114779E-1,-4.812087417E-1
1.098440058E1,-4.651735425E-1,4.682278633E-1,-4.512763619E-1
1.099415078E1,9.162971983E-4,1.740964688E-2,-3.468184769E-1
1.100390099E1,3.320049942E-1,-2.751945853E-1,-2.771798968E-1
1.101365120E1,5.494728684E-1,-2.330449075E-1,-2.338084877E-1
1.102340151E1,6.160571575E-1,-1.191186346E-2,-1.769980639E-1
1.103315172E1,5.109884143E-1,1.298087686E-1,-7.681624591E-2
1.104290193E1,3.539961278E-1,1.499672979E-1,1.298087649E-2
1.105265214E1,1.976147592E-1,1.212566569E-1,3.252854943E-2
1.106240235E1,7.238747925E-2,1.035415828E-1,-2.306014486E-2
1.107215256E1,2.046396956E-2,6.750056148E-2,-1.128572673E-1
1.108190287E1,2.596175298E-2,-3.359756200E-3,-1.831067204E-1
1.109165308E1,3.084867075E-2,-1.420260668E-1,-1.953240186E-1
1.110140328E1,-1.313359290E-2,-2.733619809E-1,-1.525634825E-1
1.111115349E1,-1.145371497E-1,-3.820959330E-1,-6.215549260E-2
1.112090370E1,-2.330449075E-1,-4.389063418E-1,4.841103405E-2
1.113065391E1,-3.717112243E-1,-4.303542376E-1,1.375972927E-1
1.114040422E1,-4.608974755E-1,-3.656025827E-1,1.950185746E-1
1.115015443E1,-4.572322965E-1,-2.751945853E-1,2.243400961E-1
1.115990464E1,-3.967566788E-1,-1.853974611E-1,2.267835438E-1
1.116965485E1,-2.611446977E-1,-1.200349256E-1,1.870773435E-1
1.117940506E1,-1.169806048E-1,5.803215317E-3,1.156061590E-1
1.118915526E1,-3.268126398E-2,1.566868126E-1,3.985892609E-2
1.119890558E1,1.435532235E-2,2.831358314E-1,-4.382954910E-2
1.120865579E1,3.084867075E-2,3.686569035E-1,-1.153007299E-1
1.121840599E1,1.007926930E-2,3.796524704E-1,-1.623373181E-1
1.122815620E1,-3.268126398E-2,3.100138903E-1,-1.959348768E-1
1.123790641E1,-3.695731983E-2,2.049451321E-1,-1.629481763E-1
1.124765662E1,5.039634556E-2,4.123337194E-2,-8.597921580E-2
1.125740683E1,1.676823795E-1,-1.737910360E-1,-1.084284950E-2
1.126715714E1,2.593120933E-1,-3.649916947E-1,2.580903657E-2
1.127690735E1,3.222311735E-1,-4.608974755E-1,1.420260593E-2
1.128665756E1,3.234528899E-1,-4.566214085E-1,-5.665770918E-2
1.129640776E1,2.861901522E-1,-3.820959330E-1,-1.256854236E-1
1.130615797E1,2.299905866E-1,-2.635881603E-1,-1.067486182E-1
1.131590818E1,1.988364905E-1,-2.092211843E-1,-1.695149764E-2
1.132565839E1,2.770271897E-1,-2.006690800E-1,1.266017258E-1
1.133540870E1,4.224129915E-1,-1.908952445E-1,2.823722363E-1
1.134515891E1,5.580250025E-1,-1.432477981E-1,3.917170465E-1
1.135490912E1,6.575959325E-1,-5.467239767E-2,4.711294472E-1
1.136465933E1,6.777544618E-1,-4.734202102E-2,4.980075061E-1
1.137440954E1,5.653553605E-1,-3.817904741E-2,4.308123887E-1
1.138415974E1,2.813032269E-1,1.316413581E-1,2.945895493E-1
1.139390995E1,-1.182023361E-1,4.670061171E-1,9.728021920E-2
1.140366016E1,-5.396990180E-1,8.646790981E-1,-1.159115955E-1
1.141341047E1,-8.500183225E-1,1.165835381E0,-3.407098353E-1
1.142316068E1,-9.379828572E-1,1.286786675E0,-5.038107038E-1
1.143291089E1,-8.133664727E-1,1.225089312E0,-5.306887627E-1
1.144266110E1,-5.653553605E-1,9.703587294E-1,-4.274526238E-1
1.145241131E1,-3.704894781E-1,5.873464942E-1,-2.735147178E-1
1.146216151E1,-2.727511227E-1,2.055560052E-1,-1.055268943E-1
1.147191172E1,-2.232710719E-1,-3.634645417E-2,5.451968312E-2
1.148166193E1,-2.257145345E-1,2.107483521E-2,1.595884264E-1
1.149141224E1,-2.141081095E-1,2.819140851E-1,2.438877672E-1
1.150116245E1,-1.200349256E-1,4.896081090E-1,3.226893246E-1
1.151091266E1,3.084867075E-2,5.708531141E-1,3.764454126E-1
1.152066287E1,1.774562150E-1,5.329795480E-1,4.033234715E-1
1.153041308E1,2.709185183E-1,4.065304995E-1,3.892735839E-1
1.154016328E1,3.289506733E-1,2.788597643E-1,3.361283541E-1
1.154991349E1,4.040870368E-1,1.267544478E-1,3.147480786E-1
1.155966370E1,4.560105503E-1,-1.114828214E-1,3.123046160E-1
1.156941391E1,3.717112243E-1,-3.765981495E-1,2.762635946E-1
1.157916412E1,2.098320574E-1,-5.769617558E-1,2.237292230E-1
1.158891443E1,8.093958348E-2,-6.447677612E-1,1.418733448E-1
1.159866464E1,4.306596518E-2,-6.337721944E-1,6.551524997E-2
1.160841485E1,7.544180006E-2,-5.989528894E-1,5.650499370E-3
1.161816506E1,1.401934624E-1,-5.409207344E-1,-3.344484791E-2
1.162791526E1,2.251036763E-1,-4.706713259E-1,-7.192932814E-2
1.163766547E1,2.898553312E-1,-3.460549116E-1,-1.171333194E-1
1.164741568E1,3.411679864E-1,-1.713475734E-1,-1.849393100E-1
1.165716589E1,3.729329407E-1,-3.329212964E-2,-2.435823381E-1
1.166691610E1,3.882045746E-1,5.894844979E-2,-2.594648004E-1
1.167666631E1,3.607156575E-1,1.065959036E-1,-2.735147178E-1
1.168641662E1,2.464839369E-1,1.291978955E-1,-2.515235841E-1
1.169616683E1,3.207040206E-2,1.548542231E-1,-2.130390853E-1
1.170591704E1,-1.682932526E-1,1.798996776E-1,-1.721111536E-1
1.171566724E1,-1.915061027E-1,2.183841616E-1,-1.006399691E-1
1.172541745E1,-7.971785218E-2,1.554650813E-1,-1.145371422E-2
1.173516766E1,1.557705179E-2,3.451386094E-2,4.963276163E-2
1.174491787E1,7.483093441E-2,7.544180006E-2,2.825249545E-2
1.175466808E1,3.756818548E-2,2.373209596E-1,-8.109229803E-2
1.176441829E1,-1.878409237E-1,3.753764033E-1,-1.531743407E-1
1.177416849E1,-4.810560048E-1,3.686569035E-1,-4.871646687E-2
1.178391870E1,-7.095194459E-1,-8.857538924E-3,1.388190240E-1
1.179366901E1,-8.683443069E-1,-6.814196706E-1,1.950185746E-1
1.180341922E1,-9.819651246E-1,-1.218980670E0,1.363755614E-1
1.181316943E1,-9.123265743E-1,-1.401018381E0,4.291325063E-2
1.182291964E1,-5.445859432E-1,-1.282510638E0,-1.660024971E-1
1.183266985E1,-2.257145345E-1,-9.104939699E-1,-4.628827870E-1
1.184242006E1,-2.159406990E-1,-3.375027776E-1,-7.725912333E-1
1.185217026E1,-4.242455959E-1,2.745837271E-1,-1.011439323E0
1.186192047E1,-6.588176489E-1,6.783653498E-1,-1.130558014E0
1.187167068E1,-7.980948091E-1,7.070759535E-1,-1.111621141E0
1.188142089E1,-7.932079434E-1,3.472766280E-1,-9.955568910E-1
1.189117110E1,-7.199041247E-1,-2.006690800E-1,-7.884737253E-1
1.190092131E1,-5.513054729E-1,-6.441569328E-1,-4.647153914E-1
1.191067151E1,-2.415970266E-1,-8.891136646E-1,-1.568395346E-1
1.192042172E1,5.406153202E-2,-9.104939699E-1,3.207040019E-3
1.193017193E1,3.026835024E-1,-5.513054729E-1,8.704823442E-3
1.193992224E1,5.433642268E-1,7.910698652E-2,-4.932733253E-2
1.194967245E1,7.486147881E-1,5.904008150E-1,-1.782197952E-1
1.195942266E1,8.659008145E-1,8.194751143E-1,-3.089448512E-1
1.196917276E1,8.475748897E-1,9.129374027E-1,-3.071122766E-1
1.197892308E1,6.203331947E-1,7.284562588E-1,-2.044869810E-1
1.198867328E1,2.886336148E-1,3.179551065E-1,9.926552884E-3
1.199842349E1,4.123337194E-2,-1.090393662E-1,3.006981909E-1
1.200817370E1,-5.955931544E-2,-3.985892832E-1,6.122392416E-1
1.201792391E1,-7.299833745E-2,-5.232056975E-1,8.248201609E-1
1.202767412E1,-6.078104675E-2,-4.266890585E-1,9.207259417E-1
1.203742433E1,4.489856213E-2,-1.939495653E-1,8.999565244E-1
1.204717454E1,1.792888194E-1,-1.924224012E-2,6.940951347E-1
1.205692474E1,1.884517819E-1,1.951712966E-1,4.650208056E-1
1.206667495E1,2.092211843E-1,3.857611120E-1,2.127336562E-1
1.207642516E1,3.149007857E-1,4.236347377E-1,-5.665770918E-2
1.208617537E1,3.827067912E-1,3.240637779E-1,-2.887863219E-1
1.209592558E1,3.558287323E-1,1.597411335E-1,-4.146244824E-1
1.210567578E1,2.684750557E-1,-3.878991306E-2,-3.779725730E-1
1.211542599E1,2.049451321E-1,-2.153298408E-1,-2.386954129E-1
1.212517620E1,1.872300506E-1,-3.436114490E-1,-1.061377525E-1
1.213492641E1,1.634063274E-1,-4.877755344E-1,1.420260593E-2
1.214467672E1,1.010981202E-1,-6.343830824E-1,1.015562713E-1
1.215442693E1,7.971785218E-2,-6.924152374E-1,1.052214578E-1
1.216417714E1,1.224783882E-1,-6.472112536E-1,-4.734201822E-3
1.217392735E1,2.794706225E-1,-5.183187723E-1,-1.592829973E-1
1.218367756E1,5.201513767E-1,-3.759872615E-1,-2.582430840E-1
1.219342776E1,6.936369538E-1,-3.240637779E-1,-2.289215773E-1
1.220317797E1,7.834340930E-1,-3.668242991E-1,-1.389717404E-2
1.221292818E1,7.168498039E-1,-6.105593443E-1,3.196350038E-1
1.222267839E1,4.321868420E-1,-9.538653493E-1,6.928733587E-1
1.223242860E1,1.432477981E-1,-1.102305532E0,9.653190970E-1
1.224217881E1,8.155044913E-2,-9.453132749E-1,1.046564102E0
1.225192901E1,1.658497900E-1,-6.563742161E-1,9.946405888E-1
1.226167922E1,2.819140851E-1,-3.081812859E-1,9.017891288E-1
1.227142943E1,3.753764033E-1,-3.940077871E-2,7.490729094E-1
1.228117964E1,4.211912751E-1,1.334739476E-1,4.967857897E-1
1.229092985E1,4.346303046E-1,4.266890585E-1,1.992946416E-1
1.230067995E1,3.100138903E-1,8.048143387E-1,-9.941824526E-2
1.231043026E1,-3.756818548E-2,1.144455194E0,-3.914116025E-1
1.232018047E1,-4.871646762E-1,1.372307777E0,-6.650790572E-1
1.232993068E1,-8.946114779E-1,1.459050536E0,-8.507819176E-1
1.233968089E1,-1.152396441E0,1.256243467E0,-8.880446553E-1
1.234943110E1,-1.195156932E0,7.486147881E-1,-7.878628373E-1
1.235918131E1,-1.050992846E0,6.811141968E-2,-5.422952175E-1
1.236893151E1,-7.962622643E-1,-6.692023873E-1,-2.185368687E-1
1.237868172E1,-4.737256467E-1,-1.327103734E0,1.481347065E-2
1.238843193E1,-1.053741723E-1,-1.630703568E0,9.666935354E-2
1.239818214E1,2.910770774E-1,-1.440724611E0,7.834340632E-2
1.240793235E1,6.869174242E-1,-8.518509269E-1,8.093958721E-3
1.241768256E1,1.046716809E0,-1.157588735E-1,-7.925970852E-2
1.242743276E1,1.269071579E0,5.506945848E-1,-1.470656991E-1
1.243718297E1,1.265406370E0,1.021060467E0,-1.360701323E-1
1.244693318E1,1.037553787E0,1.251967311E0,-8.048143238E-2
1.245668339E1,6.728675365E-1,1.255021691E0,1.847865991E-2
1.246643360E1,2.623664141E-1,1.043051600E0,1.492037177E-1
1.247618381E1,-1.267544478E-1,7.333431840E-1,3.025307953E-1
1.248593401E1,-4.401280880E-1,3.992001414E-1,4.173733592E-1
1.249568422E1,-6.551524997E-1,1.237001196E-1,4.955640435E-1
1.250543443E1,-7.944296598E-1,1.435532235E-2,5.126682520E-1
1.251518464E1,-7.547234297E-1,6.078104675E-2,4.796815813E-1
1.252493485E1,-4.175260663E-1,2.232710719E-1,4.179842174E-1
1.253468506E1,7.360920310E-2,4.016436040E-1,3.184132576E-1
1.254443526E1,4.786125422E-1,5.177078843E-1,2.066250145E-1
1.255418547E1,6.789761782E-1,5.855138898E-1,1.064431891E-1
1.256393568E1,6.441569328E-1,6.013963819E-1,4.108065739E-2
1.257368589E1,4.474584460E-1,5.048797131E-1,2.397644334E-2
1.258343610E1,2.458730787E-1,3.222311735E-1,4.352411628E-2
1.259318631E1,1.041524485E-1,7.116574794E-2,7.406735420E-2
1.260293651E1,3.023780696E-2,-2.128863782E-1,1.033888608E-1
1.261268672E1,2.351829410E-2,-4.425715208E-1,1.388190240E-1
1.262243693E1,1.047633067E-1,-5.158752799E-1,1.870773435E-1
1.263218714E1,2.403752953E-1,-4.847212136E-1,2.035706937E-1
1.264193735E1,4.340194166E-1,-4.486801922E-1,1.485928595E-1
1.265168745E1,6.172788739E-1,-4.150826037E-1,3.741546720E-2
1.266143776E1,6.301070452E-1,-3.772090077E-1,-6.093376130E-2
1.267118797E1,3.442223072E-1,-4.346303046E-1,-1.049160287E-1
1.268093818E1,-2.782489061E-1,-6.209440231E-1,-1.134681329E-1
1.269068839E1,-9.172134399E-1,-7.712168097E-1,-1.030834317E-1
1.270043860E1,-1.297782183E0,-7.614429593E-1,-9.514218569E-2
1.271018881E1,-1.350927472E0,-5.842921734E-1,-3.527744114E-2
1.271993901E1,-9.746347666E-1,-2.678641975E-1,8.017600328E-2
1.272968922E1,-3.753764033E-1,1.524107605E-1,1.999054998E-1
1.273943943E1,3.573558852E-2,4.688387215E-1,2.719875574E-1
1.274918964E1,1.646280587E-1,6.111702323E-1,2.542724609E-1
1.275893985E1,1.139262840E-1,6.856957078E-1,1.553123742E-1
1.276869006E1,-8.521563560E-2,6.856957078E-1,2.825249545E-2
1.277844026E1,-3.814850450E-1,5.867356062E-1,-1.531743407E-1
1.278819047E1,-6.820304990E-1,4.651735425E-1,-3.706422150E-1
1.279794068E1,-9.801325202E-1,3.020726442E-1,-5.942187309E-1
1.280769078E1,-1.276401997E0,-9.162971983E-4,-7.310523987E-1
1.281744099E1,-1.418122530E0,-3.576613367E-1,-7.139481902E-1
1.282719120E1,-1.281288862E0,-7.052434087E-1,-5.661189556E-1
1.283694141E1,-9.330959320E-1,-8.665117025E-1,-3.920224607E-1
1.284669162E1,-4.999928176E-1,-7.308996916E-1,-2.276998460E-1
1.285644183E1,-9.804379940E-2,-3.442223072E-1,-3.649916872E-2
1.286619204E1,1.456912458E-1,1.438586563E-1,1.204930767E-1
1.287594224E1,1.823431402E-1,6.136136651E-1,2.231183648E-1
1.288569245E1,9.071341902E-2,1.007010579E0,2.725984156E-1
1.289544266E1,-2.779434808E-2,1.245247841E0,2.829830945E-1
1.290519287E1,-1.469129771E-1,1.264184713E0,2.903134823E-1
1.291494308E1,-2.947422564E-1,1.014340997E0,2.909243405E-1
1.292469328E1,-4.413498044E-1,6.142245531E-1,2.829830945E-1
1.293444349E1,-5.073232055E-1,1.536324918E-1,2.970330119E-1
1.294419370E1,-4.590648711E-1,-2.837466896E-1,3.355174661E-1
1.295394391E1,-3.179551065E-1,-5.555815101E-1,3.251327872E-1
1.296369412E1,-8.338304609E-2,-6.453786492E-1,2.212857604E-1
1.297344433E1,2.043342739E-1,-6.081159115E-1,8.200860023E-2
1.298319454E1,4.474584460E-1,-5.164861679E-1,-2.855792828E-2
1.299294474E1,5.885682106E-1,-3.588830531E-1,-7.803797722E-2
1.300269485E1,6.197223067E-1,-1.994473487E-1,-6.643154472E-2
1.301244506E1,6.148353815E-1,-6.811141968E-2,-4.734201822E-3
1.302219526E1,6.191114783E-1,1.007926930E-2,5.390881747E-2
1.303194547E1,5.604684353E-1,-5.100720748E-2,1.137735620E-1
1.304169568E1,4.150826037E-1,-1.414151937E-1,2.035706937E-1
1.305144589E1,2.898553312E-1,-1.805105358E-1,2.548833191E-1
1.306119610E1,2.965748608E-1,-1.682932526E-1,1.742491722E-1
1.307094631E1,4.590648711E-1,-1.224783882E-1,-1.679878100E-3
1.308069651E1,7.620537877E-1,-4.734202102E-2,-1.531743407E-1
1.309044672E1,1.110246778E0,-5.711585656E-2,-2.276998460E-1
1.310019693E1,1.263573766E0,-2.165515572E-1,-2.050978541E-1
1.310994714E1,1.099251151E0,-4.688387215E-1,-1.098029464E-1
1.311969735E1,6.716458201E-1,-6.417134404E-1,1.970038936E-2
1.312944756E1,1.151480079E-1,-6.863065958E-1,1.528689116E-1
1.313919776E1,-3.625482321E-1,-6.386591196E-1,2.328922004E-1
1.314894787E1,-5.207622051E-1,-5.794052482E-1,1.803578287E-1
1.315869808E1,-3.020726442E-1,-3.967566788E-1,-1.679878100E-3
1.316844828E1,1.679878123E-2,-1.365282834E-1,-2.222020626E-1
1.317819849E1,2.599229515E-1,5.894844979E-2,-4.482220411E-1
1.318794870E1,3.930914998E-1,2.061668634E-1,-6.436987519E-1
1.319769891E1,4.132500291E-1,3.539961278E-1,-8.538362384E-1
1.320744912E1,3.582721949E-1,5.684096813E-1,-1.070082426E0
1.321719933E1,2.739728391E-1,8.298597932E-1,-1.280219913E0
1.322694954E1,2.031125426E-1,1.101694584E0,-1.438433886E0
1.323669974E1,1.463021189E-1,1.364977360E0,-1.471420527E0
1.324644995E1,7.971785218E-2,1.501811028E0,-1.388342977E0
1.325620016E1,-8.521563560E-2,1.453552723E0,-1.260672212E0
1.326595026E1,-3.961458206E-1,1.176220179E0,-1.073136687E0
1.327570047E1,-7.797688842E-1,6.563742161E-1,-8.403972387E-1
1.328545068E1,-1.098029494E0,-8.460476995E-2,-5.239692926E-1
1.329520089E1,-1.237306595E0,-9.532544613E-1,-8.414662629E-2
1.330495110E1,-1.127350926E0,-1.751654744E0,3.416261375E-1
1.331470131E1,-8.365793228E-1,-2.227518320E0,6.611084342E-1
1.332445151E1,-5.244274139E-1,-2.305709124E0,8.804088831E-1
1.333420172E1,-2.874118686E-1,-2.074802160E0,9.799798131E-1
1.334395193E1,-1.041524485E-1,-1.537241220E0,9.640973210E-1
1.335370214E1,6.933315098E-2,-8.042035103E-1,8.755219579E-1
1.336345224E1,2.648098767E-1,-7.635809947E-3,7.270817757E-1
1.337320245E1,4.187478125E-1,6.783653498E-1,5.328267813E-1
1.338295266E1,4.547888339E-1,1.109635830E0,3.544542789E-1
1.339270287E1,4.095848203E-1,1.289230108E0,2.524398565E-1
1.340245308E1,3.100138903E-1,1.287397504E0,2.078467458E-1
1.341220328E1,1.786779463E-1,1.113301039E0,1.846338809E-1
1.342195349E1,5.955931544E-2,7.583886385E-1,1.773035079E-1
1.343170370E1,-6.414080039E-3,2.806923687E-1,2.078467458E-1
1.344145391E1,-1.130099874E-2,-1.243109852E-1,2.567159235E-1
1.345120412E1,4.581485875E-3,-3.900371492E-1,2.890917659E-1
1.346095422E1,8.246674202E-3,-5.403099060E-1,3.080285788E-1
1.347070443E1,5.955931544E-2,-5.091558099E-1,3.495673835E-1
1.348045464E1,1.963930279E-1,-3.368919194E-1,4.014908671E-1
1.349020485E1,3.711003661E-1,-8.399390429E-2,4.277580678E-1
1.349995506E1,4.865537882E-1,1.010981202E-1,3.898844421E-1
1.350970526E1,5.378664136E-1,1.615737379E-1,2.835939825E-1
1.351945547E1,5.763509274E-1,1.090393662E-1,1.156061590E-1
1.352920568E1,6.032289863E-1,-6.933315098E-2,-9.819651395E-2
1.353895589E1,6.307178736E-1,-3.350593448E-1,-2.851211429E-1
1.354870599E1,6.966912746E-1,-5.506945848E-1,-3.578140438E-1
1.355845620E1,7.999274135E-1,-6.667588949E-1,-2.747364342E-1
1.356820641E1,8.707877398E-1,-7.394518256E-1,-5.971203372E-2
1.357795662E1,7.626646757E-1,-7.510582209E-1,1.962403059E-1
1.358770683E1,4.969384968E-1,-7.205150127E-1,3.220784664E-1
1.359745704E1,1.933387071E-1,-6.685914993E-1,2.133445293E-1
1.360720724E1,-1.414151937E-1,-5.207622051E-1,-1.275180280E-1
1.361695735E1,-4.444041252E-1,-2.825249732E-1,-5.239692926E-1
1.362670756E1,-6.520981789E-1,-2.107483521E-2,-8.452841640E-1
1.363645776E1,-7.987056971E-1,1.933387071E-1,-1.023045778E0
1.364620797E1,-7.516691089E-1,3.216203153E-1,-1.038928270E0
1.365595818E1,-4.444041252E-1,3.338375986E-1,-8.947641850E-1
1.366570839E1,-2.562577724E-1,2.031125426E-1,-6.638572812E-1
1.367545860E1,-3.075704277E-1,8.338304609E-2,-4.054614902E-1
1.368520881E1,-5.244274139E-1,-2.351829410E-2,-1.678351015E-1
1.369495901E1,-8.793398738E-1,-8.277218044E-2,2.947422490E-2
1.370470912E1,-1.236084938E0,-8.155044913E-2,1.186604798E-1
1.371445933E1,-1.378416419E0,-9.621120244E-2,8.200860023E-2
1.372420954E1,-1.212261200E0,-6.994401664E-2,-2.183841541E-2
1.373395974E1,-7.522799969E-1,5.589412898E-2,-1.837175786E-1
1.374370995E1,-1.450803876E-1,1.463021189E-1,-3.517054021E-1
1.375346016E1,4.199695289E-1,1.438586563E-1,-4.366155863E-1
1.376321037E1,8.787289858E-1,4.306596518E-2,-3.962985277E-1
1.377296047E1,1.184161425E0,-1.120936871E-1,-1.959348768E-1
1.378271068E1,1.220813274E0,-2.031125426E-1,1.149952933E-1
1.379246089E1,9.923498631E-1,-1.976147592E-1,4.247037470E-1
1.380221110E1,6.472112536E-1,-1.395826042E-1,6.531671882E-1
1.381196131E1,2.684750557E-1,4.062250629E-2,7.600684762E-1
1.382171151E1,-8.155044913E-2,3.063486814E-1,7.655662894E-1
1.383146162E1,-3.833176494E-1,6.117810607E-1,6.586649418E-1
1.384121183E1,-6.093376279E-1,8.976657987E-1,4.619664848E-1
1.385096204E1,-6.404917240E-1,1.115744472E0,2.444986254E-1
1.386071224E1,-4.773908257E-1,1.153618097E0,6.185005978E-2
1.387046235E1,-2.098320574E-1,9.874629378E-1,-3.466657549E-2
1.388021266E1,7.177661359E-2,6.795870662E-1,-4.627300799E-2
1.388996287E1,2.892444730E-1,3.399462402E-1,-1.084284950E-2
1.389971297E1,4.480693042E-1,5.589412898E-2,3.985892609E-2
1.390946318E1,5.115992427E-1,-1.634063274E-1,8.139773458E-2
1.391921339E1,4.889972508E-1,-2.721402645E-1,9.850194305E-2
1.392896360E1,4.132500291E-1,-2.959639728E-1,9.300415963E-2
1.393871381E1,3.185659945E-1,-2.409861535E-1,8.445205539E-2
1.394846401E1,2.263254076E-1,-1.646280587E-1,8.445205539E-2
1.395821412E1,2.000582218E-1,-1.921169758E-1,8.689551800E-2
1.396796433E1,2.623664141E-1,-2.568686306E-1,7.223475724E-2
1.397771454E1,3.142899275E-1,-2.977965772E-1,2.947422490E-2
1.398746474E1,2.837466896E-1,-2.513708472E-1,-4.382954910E-2
1.399721495E1,1.640172005E-1,-6.444623321E-2,-8.781181276E-2
1.400696516E1,-1.527161920E-3,1.621845961E-1,-3.283398226E-2
1.401671526E1,-1.731801629E-1,3.399462402E-1,1.968511790E-1
1.402646547E1,-3.692677617E-1,3.875937164E-1,6.207913160E-1
1.403621568E1,-5.299251676E-1,2.434296161E-1,1.122922182E0
1.404596589E1,-5.433642268E-1,-8.093958348E-2,1.455843449E0
1.405571610E1,-3.790415823E-1,-3.698786199E-1,1.421024203E0
1.406546631E1,-3.970621154E-3,-3.973675370E-1,1.081994295E0
1.407521641E1,4.773908257E-1,-2.141081095E-1,5.780308247E-1
1.408496662E1,8.872811198E-1,5.467239767E-2,7.162389904E-2
1.409471683E1,1.164002895E0,3.032943606E-1,-3.003927469E-1
1.410446704E1,1.292895317E0,4.236347377E-1,-4.928151667E-1
1.411421724E1,1.259908557E0,4.871646762E-1,-5.624537468E-1
1.412396745E1,1.059544921E0,5.299251676E-1,-5.997164845E-1
1.413371756E1,6.667588949E-1,5.036579967E-1,-6.375901103E-1
1.414346776E1,1.374445762E-2,4.248564541E-1,-6.137663722E-1
1.415321797E1,-8.506292105E-1,3.240637779E-1,-5.245801210E-1
1.416296808E1,-1.704007268E0,2.367101014E-1,-4.091266990E-1
1.417271839E1,-2.313650370E0,2.226602137E-1,-3.187187016E-1
1.418246849E1,-2.405890942E0,1.939495653E-1,-2.448040545E-1
1.419221870E1,-1.846949697E0,2.043342739E-1,-6.948586553E-2
1.420196891E1,-9.502001405E-1,1.994473487E-1,1.644753367E-1
1.421171912E1,-1.481347084E-1,2.073885947E-1,3.074176908E-1
1.422146933E1,3.142899275E-1,3.430005610E-1,3.263545036E-1
1.423121954E1,3.930914998E-1,5.800161362E-1,2.725984156E-1
1.424096964E1,2.367101014E-1,8.738420606E-1,2.060141414E-1
1.425071985E1,6.933315098E-2,1.105970740E0,1.455385387E-1
1.426047006E1,-1.557705179E-2,1.173776627E0,2.519817278E-2
1.427022016E1,-7.422006875E-2,1.068707943E0,-1.672242284E-1
1.427997047E1,-1.853974611E-1,8.109229803E-1,-3.675878942E-1
1.428972058E1,-3.472766280E-1,5.293143392E-1,-4.598284662E-1
1.429947078E1,-4.437932670E-1,3.307832778E-1,-3.455967605E-1
1.430922099E1,-4.169152081E-1,5.711585656E-2,-7.987056673E-2
1.431897120E1,-3.472766280E-1,-2.971857190E-1,1.882990748E-1
1.432872141E1,-3.405571282E-1,-5.946768522E-1,3.801106215E-1
1.433847151E1,-3.417788446E-1,-7.901535630E-1,4.900662601E-1
1.434822172E1,-2.299905866E-1,-9.178243279E-1,4.864010811E-1
1.435797193E1,-1.313359290E-2,-9.605848789E-1,3.269653618E-1
1.436772214E1,2.532034516E-1,-8.885028362E-1,4.352411628E-2
1.437747235E1,4.896081090E-1,-7.602212429E-1,-3.065013885E-1
1.438722245E1,5.812378526E-1,-6.472112536E-1,-6.021599770E-1
1.439697266E1,5.702422857E-1,-5.812378526E-1,-7.841976881E-1
1.440672287E1,5.323686600E-1,-4.920515716E-1,-7.988584042E-1
1.441647308E1,4.657844007E-1,-4.553996921E-1,-6.791289449E-1
1.442622328E1,3.503309488E-1,-5.745183229E-1,-4.854847789E-1
1.443597339E1,2.422078848E-1,-7.052434087E-1,-2.454149276E-1
1.444572360E1,2.049451321E-1,-7.254019380E-1,-2.244928107E-2
1.445547381E1,2.397644222E-1,-6.704241037E-1,9.972367436E-2
1.446522401E1,3.216203153E-1,-6.123919487E-1,4.718930274E-2
1.447497422E1,4.902189970E-1,-4.963276386E-1,-1.354592592E-1
1.448472433E1,7.266236544E-1,-3.307832778E-1,-3.028362095E-1
1.449447454E1,9.465349913E-1,-3.149007857E-1,-3.211621642E-1
1.450422474E1,1.048549414E0,-3.521635532E-1,-2.099847645E-1
1.451397495E1,8.964440823E-1,-3.149007857E-1,-4.260781780E-2
1.452372516E1,5.213730931E-1,-3.625482321E-1,1.168278903E-1
1.453347526E1,6.017018110E-2,-6.973021626E-1,3.098611534E-1
1.454322547E1,-1.597411335E-1,-9.868520498E-1,4.234820008E-1
1.455297568E1,-2.107483521E-2,-1.007621408E0,4.387536347E-1
1.456272589E1,4.474584460E-1,-9.092722535E-1,4.796815813E-1
1.457247599E1,1.059544921E0,-7.699950337E-1,5.859720111E-1
1.458222620E1,1.338099241E0,-5.519163013E-1,6.647735834E-1
1.459197641E1,1.151785493E0,-3.301724195E-1,6.995928884E-1
1.460172662E1,6.734784245E-1,-1.200349256E-1,7.496837974E-1
1.461147683E1,-1.133154184E-1,2.819140851E-1,7.667880058E-1
1.462122693E1,-1.112079382E0,1.077870846E0,6.885973215E-1
1.463097714E1,-1.767537236E0,2.399171352E0,5.340485573E-1
1.464072735E1,-1.743102670E0,3.821264744E0,2.298378795E-1
1.465047756E1,-8.341358304E-1,5.071094036E0,-2.533561587E-1
1.466022766E1,6.704241037E-1,5.728384495E0,-7.365502119E-1
1.466997787E1,1.799302220E0,5.125461102E0,-9.485203028E-1
1.467972808E1,2.035095930E0,3.494452000E0,-9.082031846E-1
1.468947829E1,1.780365348E0,1.562286615E0,-7.451022863E-1
1.469922839E1,1.426063776E0,-1.750127524E-1,-5.587885380E-1
1.470897860E1,9.660826325E-1,-1.626427531E0,-4.335612655E-1
1.471872881E1,4.663952589E-1,-2.669784546E0,-3.400989771E-1
1.472847901E1,6.322450191E-2,-3.141983032E0,-1.977674663E-1
1.473822922E1,-1.664606482E-1,-3.101665974E0,-1.023198478E-2
1.474797933E1,-1.756236255E-1,-2.639241219E0,3.924806044E-2
1.475772954E1,-6.933315098E-2,-1.932470679E0,-1.831067204E-1
1.476747974E1,-2.107483521E-2,-9.703587294E-1,-4.427242577E-1
1.477722995E1,-1.915061027E-1,-2.098320574E-1,-5.954404473E-1
1.478698006E1,-5.048797131E-1,1.267544478E-1,-6.186532974E-1
1.479673026E1,-7.993165851E-1,2.898553312E-1,-5.416843295E-1
1.480648037E1,-9.697478414E-1,3.423897028E-1,-4.207331240E-1
1.481623068E1,-8.750637770E-1,2.977965772E-1,-2.771798968E-1
1.482598078E1,-6.026180983E-1,1.096502244E-1,-1.153007299E-1
1.483573099E1,-2.587012351E-1,9.468403645E-3,3.497200832E-2
1.484548120E1,6.688969582E-2,-4.795288667E-2,1.192713454E-1
1.485523141E1,2.715294063E-1,-2.171624303E-1,1.027780026E-1
1.486498151E1,3.020726442E-1,-3.533852696E-1,4.902189970E-2
1.487473172E1,1.408043355E-1,-3.491092324E-1,4.169152305E-2
1.488448193E1,-1.188132018E-1,-3.081812859E-1,5.146535859E-2
1.489423214E1,-4.211912751E-1,-2.525925934E-1,5.390881747E-2
1.490398224E1,-6.087267399E-1,-1.114828214E-1,9.361502528E-2
1.491373245E1,-5.836812854E-1,7.788526267E-2,1.437059343E-1
1.492348266E1,-3.790415823E-1,1.988364905E-1,1.583666950E-1
1.493323287E1,-7.727439702E-2,2.507599890E-1,1.547015011E-1
1.494298297E1,1.988364905E-1,2.904661894E-1,1.211039424E-1
1.495273318E1,3.992001414E-1,2.916879356E-1,6.795870513E-2
1.496248339E1,4.248564541E-1,3.258963525E-1,5.574141070E-2
1.497223360E1,3.020726442E-1,3.149007857E-1,9.728021920E-2
1.498198381E1,8.338304609E-2,1.487455666E-1,1.149952933E-1
1.499173391E1,-2.183841616E-1,-1.328630894E-1,9.422589093E-2
1.500148412E1,-4.792234302E-1,-4.340194166E-1,7.406735420E-2
1.501123433E1,-5.879573226E-1,-6.325504780E-1,1.725693047E-2
1.502098443E1,-5.335903764E-1,-7.150171995E-1,-7.437278330E-2
1.503073464E1,-4.828886092E-1,-8.261946440E-1,-2.026543915E-1
1.504048485E1,-4.957167804E-1,-8.817833066E-1,-2.771798968E-1
1.505023506E1,-6.478220820E-1,-8.781180978E-1,-2.557996213E-1
1.505998516E1,-9.856303334E-1,-7.260127664E-1,-1.501200199E-1
1.506973537E1,-1.380859852E0,-5.091558099E-1,7.467821985E-2
1.507948558E1,-1.632536173E0,-3.045161068E-1,3.843866587E-1
1.508923579E1,-1.707672477E0,-1.004872546E-1,6.556106210E-1
1.509898589E1,-1.570227861E0,2.165515572E-1,8.840740323E-1
1.510873610E1,-1.338710189E0,3.882045746E-1,1.036179423E0
1.511848631E1,-1.250745654E0,2.428187430E-1,1.113148332E0
1.512823651E1,-1.247691274E0,-1.102610901E-1,1.014799118E0
1.513798662E1,-1.340542793E0,-4.407389462E-1,7.276926637E-1
1.514773683E1,-1.633757830E0,-6.667588949E-1,3.611738086E-1
1.515748704E1,-1.922696948E0,-6.649262905E-1,4.657844082E-2
1.516723724E1,-1.933692455E0,-4.456258714E-1,-1.299614757E-1
1.517698735E1,-1.539073825E0,-1.527161920E-3,-8.536835015E-2
1.518673756E1,-8.469640017E-1,5.739074349E-1,1.290451884E-1
1.519648776E1,-2.269362658E-1,1.043051600E0,3.532325625E-1
1.520623797E1,1.627954692E-1,1.240360975E0,5.279398561E-1
1.521598808E1,3.307832778E-1,1.118188024E0,6.403390169E-1
1.522573828E1,3.631591201E-1,7.589994669E-1,6.922625303E-1
1.523548849E1,3.808741868E-1,2.306014597E-1,7.466294765E-1
1.524523860E1,5.042688847E-1,-4.474584460E-1,7.423534393E-1
1.525498881E1,7.040216327E-1,-1.121242285E0,6.030762792E-1
1.526473901E1,9.251546860E-1,-1.496924162E0,3.794997334E-1
1.527448922E1,1.234863162E0,-1.403461814E0,1.913533956E-1
1.528423933E1,1.550680280E0,-1.031445146E0,4.657844082E-2
1.529398954E1,1.523191333E0,-5.977311730E-1,-1.446222365E-1
1.530373974E1,9.471458197E-1,-4.581485875E-3,-3.101665974E-1
1.531348995E1,5.894844979E-2,6.007854939E-1,-3.523162603E-1
1.532324006E1,-7.999274135E-1,9.440914989E-1,-3.645335436E-1
1.533299026E1,-1.253799915E0,1.223867536E0,-3.223838806E-1
1.534274047E1,-1.205541611E0,1.361922979E0,-1.556178033E-1
1.535249058E1,-8.744529486E-1,1.131016135E0,5.451968312E-2
1.536224079E1,-3.301724195E-1,7.266236544E-1,2.396117151E-1
1.537199099E1,2.477056682E-1,3.026835024E-1,3.446804583E-1
1.538174120E1,6.398808360E-1,-2.107483521E-2,3.092502952E-1
1.539149131E1,8.280271888E-1,-1.524107605E-1,2.481638193E-1
1.540124151E1,8.768963814E-1,-1.933387071E-1,2.066250145E-1
1.541099172E1,8.206968307E-1,-2.159406990E-1,1.705839932E-1
1.542074183E1,6.386591196E-1,-2.214384824E-1,1.278234571E-1
1.543049204E1,4.199695289E-1,-1.982256174E-1,3.924806044E-2
1.544024224E1,2.660316229E-1,-9.743293375E-2,-4.688387364E-2
1.544999245E1,2.641990185E-1,7.727439702E-2,-9.636391699E-2
1.545974256E1,3.680460155E-1,1.902843714E-1,-1.495091617E-1
1.546949276E1,4.847212136E-1,2.452622056E-1,-1.971566081E-1
1.547924297E1,6.276635528E-1,2.959639728E-1,-2.698495090E-1
1.548899308E1,7.589994669E-1,3.222311735E-1,-3.743073940E-1
1.549874329E1,7.803797722E-1,3.613265157E-1,-4.207331240E-1
1.550849349E1,6.881392002E-1,3.094030023E-1,-4.085158110E-1
1.551824370E1,5.574141145E-1,1.499672979E-1,-4.219548404E-1
1.552799381E1,3.729329407E-1,1.802051067E-2,-4.598284662E-1
1.553774401E1,1.243109852E-1,6.078104675E-2,-4.024071693E-1
1.554749422E1,-1.609628648E-1,2.641990185E-1,-2.698495090E-1
1.555724433E1,-5.238165259E-1,4.468475878E-1,-5.726857483E-2
1.556699454E1,-9.385937452E-1,4.480693042E-1,2.542724609E-1
1.557674474E1,-1.281288862E0,1.945604384E-1,5.071704984E-1
1.558649485E1,-1.355814338E0,-5.589412898E-2,4.509709179E-1
1.559624506E1,-1.154839873E0,-2.153298408E-1,1.449276656E-1
1.560599526E1,-8.011491299E-1,-3.814850450E-1,-2.069304436E-1
1.561574547E1,-4.108065665E-1,-4.560105503E-1,-4.042397738E-1
1.562549558E1,-9.162971983E-4,-3.521635532E-1,-5.184714794E-1
1.563524578E1,4.376846254E-1,1.114828214E-1,-6.608029604E-1
1.564499599E1,8.084795475E-1,8.286380768E-1,-7.848085165E-1
1.565474610E1,9.581413865E-1,1.337488413E0,-8.709404469E-1
1.566449631E1,9.123265743E-1,1.529299974E0,-8.513928056E-1
1.567424651E1,6.826413870E-1,1.468824387E0,-7.499892116E-1
1.568399672E1,3.558287323E-1,1.205541611E0,-5.929969549E-1
1.569374683E1,-2.290742844E-2,7.724385262E-1,-3.425424397E-1
1.570349704E1,-4.889972508E-1,1.951712966E-1,-1.267544460E-2
1.571324724E1,-9.459241033E-1,-2.593120933E-1,2.493855506E-1
1.572299735E1,-1.185383081E0,-5.067123175E-1,3.538434207E-1
1.573274756E1,-1.135903001E0,-6.362156868E-1,2.671006322E-1
1.574249776E1,-8.292489648E-1,-5.238165259E-1,5.635227636E-2
1.575224787E1,-3.814850450E-1,-8.216131479E-2,-2.112064958E-1
1.576199808E1,-8.888082206E-2,4.101957083E-1,-4.482220411E-1
1.577174829E1,4.489856213E-2,6.673697829E-1,-4.677697122E-1
1.578149839E1,1.206457913E-1,5.641336441E-1,-2.826776803E-1
1.579124860E1,7.971785218E-2,2.587012351E-1,2.458730713E-2
1.580099881E1,-4.184423760E-2,-1.313359290E-2,3.776671588E-1
1.581074891E1,-2.226602137E-1,-3.320049942E-1,6.818777919E-1
1.582049912E1,-3.637699783E-1,-6.484329700E-1,9.274454713E-1
1.583024933E1,-4.834994674E-1,-8.158099055E-1,1.036790252E0
1.583999954E1,-6.582068205E-1,-7.541125417E-1,9.720385671E-1
1.584974964E1,-7.553343177E-1,-4.737256467E-1,7.625119686E-1
1.585949985E1,-6.343830824E-1,-3.390299529E-2,4.045451880E-1
1.586925006E1,-3.075704277E-1,4.291325212E-1,-1.084284950E-2
1.587900016E1,8.826996386E-2,8.170316219E-1,-3.804160357E-1
1.588875037E1,4.419606626E-1,1.123685718E0,-6.137663722E-1
1.589850058E1,6.771436334E-1,1.263573766E0,-6.302597523E-1
1.590825068E1,7.223476171E-1,1.103527188E0,-4.867065251E-1
1.591800089E1,6.191114783E-1,7.101303339E-1,-2.276998460E-1
1.592775110E1,4.193586707E-1,2.568686306E-1,1.198822111E-1
1.593750120E1,2.360992432E-1,-1.621845961E-1,4.778489769E-1
1.594725141E1,2.043342739E-1,-4.505127668E-1,7.362447977E-1
1.595700162E1,3.521635532E-1,-5.598575473E-1,7.460185885E-1
1.596675172E1,6.478220820E-1,-5.867356062E-1,4.387536347E-1
1.597650193E1,1.016173601E0,-4.578431547E-1,4.657844082E-2
1.598625214E1,1.344818830E0,-3.698786199E-1,-2.747364342E-1
1.599600224E1,1.503032804E0,-3.765981495E-1,-4.024071693E-1
1.600575245E1,1.267238975E0,-4.413498044E-1,-1.165224537E-1
1.601550266E1,3.759872615E-1,-6.582068205E-1,4.815141559E-1
1.602525276E1,-6.667588949E-1,-8.646790981E-1,1.158352375E0
1.603500297E1,-1.322216868E0,-9.080504775E-1,1.406974316E0
1.604475318E1,-1.529910803E0,-3.698786199E-1,9.891427755E-1
1.605450329E1,-1.401629210E0,3.729329407E-1,1.638644785E-1
1.606425349E1,-9.673043489E-1,1.098640323E0,-6.430879235E-1
1.607400370E1,-1.102610901E-1,1.594662547E0,-1.076801896E0
1.608375381E1,1.019227862E0,1.563508391E0,-9.992220402E-1
1.609350401E1,1.754098177E0,1.135903001E0,-6.479747891E-1
1.610325422E1,1.634979606E0,6.850848794E-1,-2.991710305E-1
1.611300433E1,9.459241033E-1,3.094030023E-1,-2.977965772E-2
1.612275454E1,1.463021189E-1,-6.261363626E-2,9.300415963E-2
1.613250474E1,-6.637045741E-1,-4.083631039E-1,8.750637621E-2
1.614225485E1,-1.303279996E0,-7.266236544E-1,-1.572976820E-2
1.615200506E1,-1.374140263E0,-9.129374027E-1,-2.399171442E-1
1.616175526E1,-8.402445316E-1,-1.035721183E0,-4.561632872E-1
1.617150537E1,-5.161807314E-2,-1.297782183E0,-4.549415410E-1
1.618125558E1,8.396336436E-1,-1.569617033E0,-3.779725730E-1
1.619100578E1,1.821904182E0,-1.545182467E0,-4.341721535E-1
1.620075589E1,2.597091675E0,-1.230587125E0,-7.194460034E-1
1.621050610E1,2.357632637E0,-8.274163604E-1,-9.503529072E-1
1.622025631E1,1.434005022E0,-4.340194166E-1,-9.112575054E-1
1.623000641E1,8.616247773E-1,-8.032871783E-2,-7.878628373E-1
1.623975662E1,6.533198953E-1,2.098320574E-1,-6.296488643E-1
1.624950683E1,5.152644515E-1,2.788597643E-1,-3.791943192E-1
1.625925693E1,3.784307241E-1,-1.252272818E-2,-6.948586553E-2
1.626900714E1,2.269362658E-1,-5.525271893E-1,1.693622619E-1
1.627875735E1,2.593120933E-1,-1.068097115E0,2.689332068E-1
1.628850745E1,4.737256467E-1,-1.366809964E0,2.084576041E-1
1.629825766E1,5.726857185E-1,-1.352760077E0,-1.511890348E-2
1.630800787E1,4.199695289E-1,-1.044884205E0,-2.527453005E-1
1.631775797E1,1.072067693E-1,-6.716458201E-1,-3.168860972E-1
1.632750818E1,-2.825249732E-1,-4.156934917E-1,-1.879936308E-1
1.633725839E1,-6.087267399E-1,-1.805105358E-1,6.185005978E-2
1.634700849E1,-7.657189965E-1,-8.216131479E-2,3.306305707E-1
1.635675870E1,-7.644972801E-1,-1.133154184E-1,4.558578432E-1
1.636650891E1,-6.301070452E-1,-2.684750557E-1,4.637990892E-1
1.637625901E1,-3.851502538E-1,-5.372555852E-1,4.888445437E-1
1.638600922E1,-6.566796452E-2,-6.545416117E-1,4.674642682E-1
1.639575943E1,1.994473487E-1,-4.547888339E-1,3.465130329E-1
1.640550954E1,2.525925934E-1,2.657261863E-2,1.528689116E-1
1.641525974E1,2.532034516E-1,7.192932963E-1,-9.025526792E-2
1.642500995E1,2.922987938E-1,1.136513948E0,-2.582430840E-1
1.643476006E1,3.094030023E-1,1.112079382E0,-1.788306683E-1
1.644451026E1,3.399462402E-1,6.661480665E-1,6.429351866E-2
1.645426047E1,3.014617562E-1,9.926552325E-2,3.874409795E-1
1.646401058E1,1.951712966E-1,-3.002400398E-1,5.633700490E-1
1.647376078E1,1.377500147E-1,-2.458730787E-1,5.041161776E-1
1.648351099E1,1.798996776E-1,2.079994529E-1,2.842048407E-1
1.649326110E1,2.257145345E-1,7.027999163E-1,6.918043643E-2
1.650301120E1,1.988364905E-1,1.007010579E0,-3.466657549E-2
1.651276151E1,-4.856374860E-2,9.453132749E-1,-1.328630932E-2
1.652251162E1,-4.486801922E-1,5.256491303E-1,9.544762224E-2
1.653226183E1,-7.064651251E-1,9.804379940E-2,1.687513888E-1
1.654201204E1,-6.795870662E-1,4.917461425E-2,7.589995116E-2
1.655176214E1,-5.720748901E-1,3.613265157E-1,-2.386954129E-1
1.656151235E1,-5.946768522E-1,7.864884138E-1,-5.978838801E-1
1.657126256E1,-7.070759535E-1,1.148731232E0,-8.196278214E-1
1.658101266E1,-7.296779752E-1,1.074816585E0,-7.603739500E-1
1.659076287E1,-7.284562588E-1,5.855138898E-1,-5.001455545E-1
1.660051308E1,-7.296779752E-1,-6.811141968E-2,-1.464548260E-1
1.661026318E1,-5.629118681E-1,-5.256491303E-1,1.320995092E-1
1.662001339E1,2.840521187E-2,-4.364628792E-1,1.473711282E-1
1.662976360E1,1.003956318E0,1.517999023E-1,-1.537852138E-1
1.663951370E1,2.015548229E0,8.597921729E-1,-4.427242577E-1
1.664926391E1,2.455981731E0,1.231197953E0,-5.636754632E-1
1.665901412E1,2.250731230E0,9.288198948E-1,-4.506655037E-1
1.666876422E1,1.743713498E0,2.177732885E-1,-1.488982886E-1
1.667851443E1,1.286175847E0,-3.631591201E-1,1.162170246E-1
1.668826464E1,9.288198948E-1,-6.667588949E-1,3.397935331E-1
1.669801474E1,7.125737667E-1,-6.478220820E-1,4.094321132E-1
1.670776495E1,7.651081085E-1,-4.150826037E-1,2.964221239E-1
1.671751516E1,8.542944193E-1,-8.277218044E-2,1.314886510E-1
1.672726526E1,8.054252267E-1,3.112356067E-1,5.039634649E-3
1.673701547E1,5.934551358E-1,4.920515716E-1,-7.009673119E-2
1.674676568E1,2.354883701E-1,4.389063418E-1,-6.643154472E-2
1.675651578E1,-3.643808365E-1,3.252854943E-1,5.085449293E-2
1.676626599E1,-9.746347666E-1,1.780670881E-1,2.225074917E-1
1.677601620E1,-1.242804408E0,1.863137633E-2,3.856084049E-1
1.678576631E1,-1.184161425E0,-1.444695145E-1,4.509709179E-1
1.679551651E1,-1.016173601E0,-2.556469142E-1,3.917170465E-1
1.680526672E1,-8.689551353E-1,-3.301724195E-1,2.206749022E-1
1.681501683E1,-6.936369538E-1,-2.990183234E-1,1.603520103E-2
1.682476704E1,-4.364628792E-1,-1.365282834E-1,-1.183550507E-1
1.683451724E1,-1.078176349E-1,7.788526267E-2,-1.525634825E-1
1.684426735E1,1.866191924E-1,2.470948100E-1,-1.030834317E-1
1.685401756E1,3.326158822E-1,3.521635532E-1,4.428769462E-3
1.686376776E1,3.173442483E-1,3.594939113E-1,1.351538301E-1
1.687351797E1,2.061668634E-1,1.829539984E-1,2.530507445E-1
1.688326808E1,4.856374860E-2,-2.748891478E-3,3.031416535E-1
1.689301828E1,-7.849612087E-2,-3.512472659E-2,2.261726856E-1
1.690276839E1,-9.254601598E-2,5.222893879E-2,1.101083755E-1
1.691251860E1,5.161807314E-2,1.548542231E-1,4.169152305E-2
1.692226881E1,2.037234008E-1,2.403752953E-1,3.863719851E-2
1.693201901E1,2.916879356E-1,3.185659945E-1,7.956513762E-2
1.694176912E1,3.594939113E-1,3.796524704E-1,1.540906429E-1
1.695151933E1,4.083631039E-1,3.582721949E-1,2.310595959E-1
1.696126954E1,3.704894781E-1,2.159406990E-1,2.964221239E-1
1.697101964E1,1.463021189E-1,3.359756200E-3,3.868301213E-1
1.698076985E1,-3.448331654E-1,-2.049451321E-1,5.810851455E-1
1.699052006E1,-8.261946440E-1,-2.953531146E-1,8.657481074E-1
1.700027016E1,-1.147509456E0,-2.171624303E-1,9.622647166E-1
1.701002037E1,-1.397353172E0,-2.104429156E-1,8.321505189E-1
1.701977058E1,-1.460272312E0,-3.839285076E-1,5.871937871E-1
1.702952068E1,-1.575114846E0,-5.690205693E-1,2.738201320E-1
1.703927089E1,-1.661857605E0,-6.826413870E-1,8.445205539E-2
1.704902110E1,-1.459050536E0,-7.223476171E-1,1.094975099E-1
1.705877131E1,-1.002123713E0,-4.358520210E-1,8.384118974E-2
1.706852141E1,-3.607156575E-1,1.652389169E-1,-1.214093715E-1
1.707827162E1,1.261435747E-1,7.535017133E-1,-3.407098353E-1
1.708802183E1,2.544251680E-1,1.024725676E0,-4.286743701E-1
1.709777193E1,2.855792940E-1,9.355394244E-1,-3.730856776E-1
1.710752214E1,4.266890585E-1,6.624828577E-1,-2.655734718E-1
1.711727235E1,6.856957078E-1,4.187478125E-1,-1.348484010E-1
1.712702256E1,1.107192397E0,3.246746361E-1,-3.833176568E-2
1.713677266E1,1.647807717E0,3.759872615E-1,-3.405570984E-2
1.714652276E1,2.107789040E0,6.142245531E-1,-9.147699922E-2
1.715627308E1,2.343582630E0,9.056070447E-1,-1.495091617E-1
1.716602318E1,2.336863279E0,1.005177975E0,-1.336266696E-1
1.717577339E1,2.150549412E0,8.371901512E-1,-5.421425030E-2
1.718552360E1,1.832288861E0,4.676169753E-1,1.908952370E-2
1.719527370E1,1.438892007E0,1.756236255E-1,6.123919412E-2
1.720502391E1,1.092531681E0,-3.512472659E-2,1.192713454E-1
1.721477412E1,8.872811198E-1,-2.067777216E-1,2.200640440E-1
1.722452433E1,6.863065958E-1,-3.576613367E-1,3.233001828E-1
1.723427443E1,4.993819594E-1,-3.820959330E-1,3.526217043E-1
1.724402464E1,3.026835024E-1,-3.240637779E-1,2.591593862E-1
1.725377485E1,1.313359290E-2,-3.289506733E-1,8.445205539E-2
1.726352506E1,-2.379318327E-1,-3.631591201E-1,-7.681624591E-2
1.727327516E1,-3.839285076E-1,-4.095848203E-1,-1.989891976E-1
1.728302537E1,-3.692677617E-1,-3.362810612E-1,-2.405280024E-1
1.729277558E1,-3.362810612E-1,-3.057378232E-1,-1.788306683E-1
1.730252568E1,-2.904661894E-1,-2.696968019E-1,-6.582067907E-2
1.731227589E1,-2.544251680E-1,-1.542433500E-1,9.315688163E-3
1.732202610E1,-2.898553312E-1,-1.679878123E-2,5.818486959E-2
1.733177631E1,-3.332267404E-1,6.261363626E-2,1.058323234E-1
1.734152641E1,-3.594939113E-1,4.673115537E-2,1.394298822E-1
1.735127662E1,-4.132500291E-1,2.107483521E-2,1.333212405E-1
1.736102683E1,-4.932733178E-1,3.756818548E-2,7.406735420E-2
1.737077704E1,-5.916225314E-1,2.901607752E-2,3.207040019E-3
1.738052714E1,-6.246092319E-1,6.139190868E-2,-2.916879393E-2
1.739027735E1,-5.323686600E-1,1.322522312E-1,-4.627300799E-2
1.740002756E1,-3.900371492E-1,1.866191924E-1,-5.115992576E-2
1.740977776E1,-2.568686306E-1,1.915061027E-1,-3.222311661E-2
1.741952787E1,-1.597411335E-1,1.737910360E-1,-5.604684353E-2
1.742927808E1,-1.652389169E-1,1.835648715E-1,-1.128572673E-1
1.743902829E1,-2.880227566E-1,1.731801629E-1,-1.586721241E-1
1.744877849E1,-6.533198953E-1,1.151480079E-1,-1.207985133E-1
1.745852860E1,-1.203098178E0,1.505781710E-1,1.985310577E-3
1.746827881E1,-1.694233418E0,2.183841616E-1,1.473711282E-1
1.747802901E1,-2.003942013E0,1.689041108E-1,1.870773435E-1
1.748777922E1,-2.038150311E0,1.047633067E-1,1.724165827E-1
1.749752943E1,-1.722333193E0,8.032871783E-2,1.821904182E-1
1.750727954E1,-1.285564899E0,9.010255337E-2,2.176205814E-1
1.751702974E1,-1.008232355E0,3.772090077E-1,2.359465212E-1
1.752677995E1,-8.628464937E-1,9.166026115E-1,1.754709035E-1
1.753653016E1,-6.178897023E-1,1.220202446E0,4.046979174E-2
1.754628037E1,-2.147189677E-1,1.258076072E0,-2.733619884E-2
1.755603047E1,2.513708472E-1,1.120020628E0,-4.734201822E-3
1.756578068E1,6.820304990E-1,7.681624889E-1,-5.345067009E-3
1.757553089E1,1.186604857E0,3.515526950E-1,-6.398808211E-2
1.758528110E1,1.551291108E0,-2.412915789E-2,-1.708894223E-1
1.759503131E1,1.710726857E0,-1.823431402E-1,-2.961167097E-1
1.760478141E1,1.700953007E0,-2.079994529E-1,-4.066832364E-1
1.761453162E1,1.542128086E0,-3.020726442E-1,-4.408916533E-1
1.762428183E1,1.373529434E0,-3.094030023E-1,-3.981311321E-1
1.763403204E1,1.287397504E0,-2.910770774E-1,-3.052796721E-1
1.764378224E1,1.246469617E0,-3.326158822E-1,-1.660024971E-1
1.765353245E1,1.245858669E0,-3.283398151E-1,1.847865991E-2
1.766328256E1,1.222645879E0,-3.130682111E-1,1.718057245E-1
1.767303276E1,1.102305532E0,-3.167333901E-1,2.603811026E-1
1.768278297E1,9.056070447E-1,-3.820959330E-1,2.793179154E-1
1.769253318E1,6.386591196E-1,-4.450149834E-1,2.499964088E-1
1.770228339E1,3.411679864E-1,-5.647444725E-1,2.212857604E-1
1.771203360E1,7.483093441E-2,-7.113520503E-1,1.785252392E-1
1.772178370E1,-1.963930279E-1,-7.535017133E-1,1.229365394E-1
1.773153391E1,-4.437932670E-1,-7.357866168E-1,6.795870513E-2
1.774128412E1,-5.842921734E-1,-7.064651251E-1,4.291325063E-2
1.775103433E1,-6.887500286E-1,-6.288852692E-1,1.003345400E-1
1.776078454E1,-6.936369538E-1,-5.323686600E-1,2.127336562E-1
1.777053474E1,-5.128209591E-1,-4.291325212E-1,3.013090491E-1
1.778028485E1,-3.087921441E-1,-3.405571282E-1,3.294088244E-1
1.779003506E1,-1.530216336E-1,-2.104429156E-1,2.952004075E-1
1.779978526E1,-9.071341902E-2,-9.376774728E-2,2.273944169E-1
1.780953547E1,-9.498947114E-2,-3.054323897E-4,1.314886510E-1
1.781928568E1,-1.298087686E-1,5.283980444E-2,3.436114267E-2
1.782903589E1,-1.640172005E-1,9.498947114E-2,-2.611446939E-2
1.783878610E1,-1.762344837E-1,1.762344837E-1,-4.505127668E-2
1.784853631E1,-9.743293375E-2,2.330449075E-1,-1.511890348E-2
1.785828641E1,9.865466505E-2,2.477056682E-1,2.764163166E-2
1.786803662E1,2.360992432E-1,2.580903769E-1,4.230238497E-2
1.787778683E1,2.025016695E-1,2.580903769E-1,-1.695149764E-2
1.788753704E1,1.542433500E-1,1.976147592E-1,-1.018617004E-1
1.789728724E1,1.316413581E-1,1.322522312E-1,-1.678351015E-1
1.790703745E1,1.127045527E-1,1.640172005E-1,-1.959348768E-1
1.791678766E1,1.096502244E-1,3.454440236E-1,-1.171333194E-1
1.792653787E1,1.041524485E-1,4.749473631E-1,7.406735420E-2
1.793628808E1,-8.032871783E-2,4.169152081E-1,3.281871080E-1
1.794603818E1,-4.902189970E-1,2.409861535E-1,5.322159529E-1
1.795578839E1,-1.109025002E0,7.635809947E-3,5.309942365E-1
1.796553860E1,-1.743713498E0,-1.530216336E-1,2.817613780E-1
1.797528881E1,-2.038761139E0,-6.566796452E-2,1.542433538E-2
1.798503901E1,-2.154825449E0,4.581485875E-3,-5.421425030E-2
1.799478922E1,-1.858556032E0,-1.890626550E-1,1.797469556E-1
1.800453943E1,-1.074816585E0,-2.098320574E-1,5.419898033E-1
1.801428964E1,-1.572976857E-1,-3.207040206E-2,5.829176903E-1
1.802403985E1,5.262600183E-1,2.629773021E-1,2.988655865E-1
1.803379006E1,7.663298845E-1,3.918697536E-1,-2.672533318E-2
1.804354026E1,6.722567081E-1,1.768453568E-1,-1.910479665E-1
1.805329047E1,5.158752799E-1,-2.299905866E-1,-2.319758981E-1
1.806304068E1,3.924806118E-1,-6.325504780E-1,-2.722929716E-1
1.807279089E1,3.918697536E-1,-9.337068200E-1,-2.722929716E-1
1.808254099E1,4.743365049E-1,-1.101083755E0,-2.142608166E-1
1.809229120E1,6.863065958E-1,-1.013730049E0,-1.507308781E-1
1.810204141E1,1.030834317E0,-7.211259007E-1,-1.617264450E-1
1.811179162E1,1.297782183E0,-4.065304995E-1,-2.411388755E-1
1.812154183E1,1.324049354E0,-1.017089859E-1,-2.869537175E-1
1.813129204E1,1.127350926E0,7.238747925E-2,-2.594648004E-1
1.814104224E1,8.304706812E-1,5.772672221E-2,-1.763872057E-1
1.815079245E1,5.396990180E-1,3.940077871E-2,-6.948586553E-2
1.816054266E1,3.155116439E-1,7.971785218E-2,3.313941509E-2
1.817029287E1,2.159406990E-1,2.544251680E-1,9.789107740E-2
1.818004308E1,2.898553312E-1,3.839285076E-1,1.259908676E-1
1.818979328E1,2.477056682E-1,3.613265157E-1,1.577558219E-1
1.819954349E1,7.635809947E-3,2.525925934E-1,1.522580534E-1
1.820929370E1,-3.979783952E-1,9.743293375E-2,1.449276656E-1
1.821904391E1,-7.675516009E-1,-1.029307172E-1,1.785252392E-1
1.822879412E1,-8.921679854E-1,-2.061668634E-1,2.176205814E-1
1.823854433E1,-8.597921729E-1,-1.389717311E-1,2.328922004E-1
1.824829454E1,-7.461713552E-1,2.779434808E-2,2.377791107E-1
1.825804474E1,-5.274817348E-1,1.658497900E-1,2.218966335E-1
1.826779495E1,-2.672533393E-1,2.251036763E-1,1.608101577E-1
1.827754516E1,-6.688969582E-2,1.505781710E-1,6.001746282E-2
1.828729537E1,-7.024944760E-3,-1.679878123E-2,-4.932733253E-2
1.829704558E1,-1.304196268E-1,-9.865466505E-2,-1.342375278E-1
1.830679579E1,-3.191768527E-1,-1.169806048E-1,-1.971566081E-1
1.831654599E1,-4.407389462E-1,-1.652389169E-1,-2.093739063E-1
1.832629620E1,-4.780016840E-1,-2.470948100E-1,-1.440113783E-1
1.833604641E1,-4.242455959E-1,-3.252854943E-1,-1.023198478E-2
1.834579662E1,-3.313941360E-1,-3.234528899E-1,1.186604798E-1
1.835554683E1,-3.460549116E-1,-3.527744114E-1,1.840230078E-1
1.836529704E1,-4.144717455E-1,-4.169152081E-1,1.314886510E-1
1.837504724E1,-4.187478125E-1,-3.998109996E-1,-5.604684353E-2
1.838479745E1,-3.069595397E-1,-2.678641975E-1,-2.838993967E-1
1.839454766E1,-2.147189677E-1,-1.285870373E-1,-4.592176080E-1
1.840429787E1,-2.886336148E-1,-6.322450191E-2,-5.477929711E-1
1.841404808E1,-5.384773016E-1,4.734202102E-2,-4.940368831E-1
1.842379828E1,-9.538653493E-1,-9.468403645E-3,-3.046688139E-1
1.843354849E1,-1.487761140E0,-2.794706225E-1,-8.964440972E-2
1.844329870E1,-2.007606983E0,-6.239983439E-1,5.635227636E-2
1.845304891E1,-2.258672476E0,-7.724385262E-1,1.143844277E-1
1.846279912E1,-2.082132578E0,-5.971203446E-1,9.117157012E-2
1.847254933E1,-1.650251150E0,-3.778198659E-1,6.429351866E-2
1.848229954E1,-1.112690210E0,-1.866191924E-1,6.490438432E-2
1.849204974E1,-6.398808360E-1,-5.894844979E-2,4.902189970E-2
1.850179995E1,-2.672533393E-1,-1.383608729E-1,4.352411628E-2
1.851155016E1,-6.444623321E-2,-2.440404743E-1,5.329795182E-2
1.852130037E1,3.940077871E-2,-4.382954836E-1,7.956513762E-2
1.853105058E1,1.603520066E-1,-7.284562588E-1,1.455385387E-1
1.854080079E1,6.444623321E-2,-9.001092315E-1,2.909243405E-1
1.855055110E1,2.360992432E-1,-6.679806113E-1,5.181660652E-1
1.856030131E1,1.148731232E0,-9.926552325E-2,6.629409790E-1
1.857005151E1,2.249509573E0,4.181369543E-1,6.562215090E-1
1.857980172E1,3.098611593E0,6.991347671E-1,5.426006317E-1
1.858955193E1,3.560425282E0,7.027999163E-1,3.599520624E-1
1.859930214E1,3.507890940E0,4.761691093E-1,2.396117151E-1
1.860905235E1,3.082118273E0,1.371391416E-1,2.163988501E-1
1.861880256E1,2.684445381E0,8.857538924E-3,2.487746775E-1
1.862855276E1,2.473086119E0,4.245510325E-2,2.768744528E-1
1.863830297E1,2.382067204E0,9.071341902E-2,3.037525117E-1
1.864805318E1,2.287994146E0,1.383608729E-1,3.312414289E-1
1.865780339E1,2.029598236E0,1.847866029E-1,2.921460867E-1
1.866755360E1,1.575725675E0,1.261435747E-1,1.180496216E-1
1.867730381E1,9.440914989E-1,1.679878123E-2,-1.788306683E-1
1.868705401E1,1.279761642E-1,-1.664606482E-1,-4.830413163E-1
1.869680433E1,-7.290670872E-1,-3.332267404E-1,-7.017309070E-1
1.870655454E1,-1.476154685E0,-3.576613367E-1,-8.031344414E-1
1.871630474E1,-1.929416418E0,-2.507599890E-1,-8.080213666E-1
1.872605495E1,-1.995389819E0,-8.826996386E-2,-7.139481902E-1
1.873580516E1,-1.803578258E0,9.743293375E-2,-6.265945435E-1
1.874555537E1,-1.598938584E0,2.336557806E-1,-6.113229394E-1
1.875530558E1,-1.499367595E0,2.654207349E-1,-6.540834904E-1
1.876505578E1,-1.377805471E0,2.092211843E-1,-6.827940941E-1
1.877480599E1,-1.137124777E0,1.426369250E-1,-6.510291100E-1
1.878455620E1,-7.919861674E-1,8.704823256E-2,-5.105302334E-1
1.879430641E1,-4.480693042E-1,3.970621154E-3,-2.979492843E-1
1.880405672E1,-2.012799382E-1,-2.901607752E-2,-8.781181276E-2
1.881380693E1,-7.544180006E-2,-8.857538924E-3,6.673697382E-2
1.882355714E1,-3.512472659E-2,1.029307172E-1,1.766926348E-1
1.883330735E1,-2.138026757E-3,2.935205400E-1,1.803578287E-1
1.884305756E1,7.910698652E-2,4.499019086E-1,4.963276163E-2
1.885280776E1,8.826996386E-2,4.682278633E-1,-8.781181276E-2
1.886255797E1,-1.206457913E-1,3.729329407E-1,-1.928805560E-1
1.887230818E1,-5.500837564E-1,1.719584316E-1,-2.478583902E-1
1.888205839E1,-9.911280870E-1,-6.872228533E-2,-2.026543915E-1
1.889180860E1,-1.284954071E0,-2.855792940E-1,-7.254019380E-2
1.890155891E1,-1.349094868E0,-3.875937164E-1,3.680460155E-2
1.891130912E1,-1.112690210E0,-3.106247485E-1,3.497200832E-2
1.892105933E1,-7.229584455E-1,-2.128863782E-1,-6.459894776E-2
1.893080954E1,-5.207622051E-1,-1.994473487E-1,-2.503018379E-1
1.894055974E1,-5.623010397E-1,-2.446513474E-1,-4.415025115E-1
1.895030995E1,-8.109229803E-1,-2.483165264E-1,-5.398517251E-1
1.896006016E1,-1.064431906E0,-1.603520066E-1,-5.251910090E-1
1.896981037E1,-1.149342060E0,-2.901607752E-2,-3.523162603E-1
1.897956068E1,-1.001512766E0,2.138026757E-3,-2.916879393E-2
1.898931089E1,-6.191114783E-1,-1.145371497E-1,3.287979662E-1
1.899906110E1,7.299833745E-2,-1.927278340E-1,5.517635942E-1
1.900881131E1,9.984585047E-1,-6.627883017E-2,6.134609580E-1
1.901856151E1,1.871995091E0,1.560759544E-1,5.743656158E-1
1.902831172E1,2.470642567E0,2.177732885E-1,4.613556266E-1
1.903806193E1,2.677725792E0,7.788526267E-2,3.367392123E-1
1.904781224E1,2.560439825E0,-1.285870373E-1,2.335030586E-1
1.905756245E1,2.230572701E0,-2.696968019E-1,1.944077164E-1
1.906731266E1,1.831067204E0,-3.222311735E-1,2.316704690E-1
1.907706287E1,1.438892007E0,-2.868010104E-1,2.640463114E-1
1.908681308E1,1.067486167E0,-1.976147592E-1,2.536616027E-1
1.909656329E1,7.418952584E-1,-1.023198515E-1,2.084576041E-1
1.910631349E1,4.205803871E-1,1.527161920E-3,1.418733448E-1
1.911606370E1,9.498947114E-2,4.673115537E-2,3.558287397E-2
1.912581401E1,-2.538143098E-1,-2.168569900E-2,-8.170316368E-2
1.913556422E1,-5.928442478E-1,-1.511890292E-1,-1.855501831E-1
1.914531443E1,-8.469640017E-1,-2.281579971E-1,-3.003927469E-1
1.915506464E1,-9.715804458E-1,-1.695149690E-1,-3.834703565E-1
1.916481485E1,-9.660826325E-1,-3.145953640E-2,-4.085158110E-1
1.917456506E1,-8.677334189E-1,8.460476995E-2,-3.529271185E-1
1.918431537E1,-7.467821836E-1,1.127045527E-1,-2.319758981E-1
1.919406558E1,-6.233875155E-1,5.955931544E-2,-9.697478265E-2
1.920381578E1,-4.834994674E-1,7.635809947E-3,1.359174121E-2
1.921356599E1,-3.478874862E-1,-4.489856213E-2,8.078686893E-2
1.922331620E1,-2.715294063E-1,-8.521563560E-2,9.361502528E-2
1.923306641E1,-2.470948100E-1,-8.704823256E-2,7.223475724E-2
1.924281662E1,-2.269362658E-1,-3.145953640E-2,5.451968312E-2
1.925256693E1,-2.018908113E-1,6.566796452E-2,7.712167501E-2
1.926231714E1,-1.469129771E-1,1.823431402E-1,1.443168074E-1
1.927206735E1,-8.826996386E-2,2.550360560E-1,2.280052751E-1
1.928181756E1,-4.795288667E-2,2.470948100E-1,2.811505198E-1
1.929156776E1,1.496618707E-2,2.287688553E-1,2.921460867E-1
1.930131797E1,5.528326333E-2,1.768453568E-1,2.310595959E-1
1.931106828E1,1.435532235E-2,1.420260668E-1,1.162170246E-1
1.932081849E1,-6.750056148E-2,9.682206810E-2,4.428769462E-3
1.933056870E1,-2.641990185E-1,1.365282834E-1,-3.405570984E-2
1.934031891E1,-5.812378526E-1,3.002400398E-1,7.483093534E-3
1.935006912E1,-9.092722535E-1,4.095848203E-1,1.198822111E-1
1.935981933E1,-1.222035050E0,2.587012351E-1,2.267835438E-1
1.936956964E1,-1.477987289E0,-6.261363626E-2,2.756527364E-1
1.937931985E1,-1.548847675E0,-3.271180987E-1,1.565341055E-1
1.938907006E1,-1.251967311E0,-3.301724195E-1,-2.386954129E-1
1.939882026E1,-7.113520503E-1,-1.230892539E-1,-7.524327040E-1
1.940857047E1,-3.356702030E-1,8.704823256E-2,-1.151938200E0
1.941832068E1,-1.450803876E-1,1.554650813E-1,-1.283274174E0
