"Time (s)","Linear Acceleration x (m/s^2)","Linear Acceleration y (m/s^2)","Linear Acceleration z (m/s^2)"
2.506838900E-2,0.000000000E0,0.000000000E0,0.000000000E0
3.481870200E-2,6.590653956E-2,1.986026764E-2,2.763170004E-1
4.456911900E-2,1.529299021E-1,3.205299377E-3,3.824052811E-1
5.431953500E-2,1.058895141E-1,2.976226807E-2,3.503618240E-1
6.406995200E-2,4.233291745E-2,4.559898376E-2,2.812392712E-1
7.382036900E-2,-8.766602725E-2,3.301620483E-2,-4.233205318E-2
8.357068100E-2,-3.306503296E-1,6.708049774E-2,-5.149662495E-1
9.332109800E-2,-5.286307335E-1,4.029273987E-3,-1.048610926E0
1.030715140E-1,-7.887402177E-1,-2.640695572E-1,-1.492375374E0
1.128219310E-1,-9.962771535E-1,-4.864921570E-1,-1.573648453E0
1.225723480E-1,-9.204630852E-1,-5.407743454E-1,-1.394878626E0
1.323226600E-1,-5.017747283E-1,-3.377056122E-1,-9.721552134E-1
1.420730770E-1,3.160136044E-1,2.593641281E-1,-6.243478060E-1
1.518234940E-1,8.881112337E-1,6.500272751E-1,-4.570339620E-1
1.615739100E-1,8.759030700E-1,6.927890778E-1,-4.809868336E-1
1.713242230E-1,8.252225518E-1,7.384634018E-1,-5.017119646E-1
1.810746390E-1,8.322856426E-1,7.797966003E-1,-3.636197448E-1
1.908250560E-1,8.315896392E-1,5.772733688E-1,-3.751854897E-1
2.005754730E-1,4.877418876E-1,2.212657928E-1,-5.844111443E-1
2.103257850E-1,-3.313332796E-1,-2.603111267E-1,-6.349027753E-1
2.200762020E-1,-9.297616482E-1,-5.974092484E-1,-4.372941554E-1
2.298266190E-1,-1.030263186E0,-6.380453110E-1,-2.530929446E-1
2.395770350E-1,-7.669470310E-1,-3.722963333E-1,-8.820778131E-2
2.493273480E-1,-1.442929357E-1,2.019815445E-1,1.320714355E-1
2.590777640E-1,3.773849010E-1,5.073823929E-1,3.052952886E-1
2.688281810E-1,4.060383141E-1,4.864244461E-1,3.598601222E-1
2.785785980E-1,1.170700490E-1,3.446655273E-1,3.344017267E-1
2.883289100E-1,-1.287938952E-1,2.888851166E-1,2.840011120E-1
2.980793270E-1,-2.402527630E-2,3.851118088E-1,-2.710342407E-2
3.078297440E-1,-2.298601717E-2,2.631368637E-1,-6.054815054E-1
3.175801600E-1,-6.396605819E-2,4.354190826E-2,-1.143743038E0
3.273304730E-1,-1.077796891E-1,-2.566289902E-1,-1.386570215E0
3.370808890E-1,-1.800614968E-2,-6.163434982E-1,-1.360406637E0
3.468313060E-1,9.805519879E-2,-1.275715828E0,-1.259350300E0
3.565816190E-1,-8.805379272E-2,-1.925079346E0,-1.161232829E0
3.663320350E-1,-2.666721642E-1,-2.437571526E0,-1.070909977E0
3.760824520E-1,-3.667481840E-1,-2.810758591E0,-1.048328400E0
3.858328690E-1,2.150701135E-1,-2.896959305E0,4.043084383E-2
3.955831810E-1,1.176071525E0,-2.955367565E0,1.399972558E0
4.053335980E-1,1.810683370E0,-3.234534264E0,1.373085022E0
4.150840140E-1,1.493893743E0,-4.379141808E0,-5.220532417E-2
4.248343270E-1,3.075057864E-1,-5.333323479E0,-1.074890375E0
4.345847440E-1,-8.922353387E-1,-4.896034241E0,-5.126723647E-1
4.443351600E-1,-1.083893895E0,-3.218236446E0,7.823029757E-1
4.540854730E-1,-5.165461898E-1,-1.060719490E0,1.818731546E0
4.638358890E-1,-5.201422572E-1,9.746990204E-1,1.322244883E0
4.735863060E-1,-9.023016691E-1,2.530918121E0,-1.098106146E0
4.833367230E-1,-1.105442166E0,4.299253464E0,-5.230420589E0
4.930870350E-1,-2.063996643E-1,6.985907555E0,-7.444422722E0
5.028374520E-1,6.512281895E-1,9.648759842E0,-5.492590427E0
5.125877640E-1,9.658075571E-1,1.095761013E1,-6.813422441E-1
5.223381810E-1,1.689906359E0,1.079006290E1,4.645046234E0
5.320885980E-1,3.848897815E-1,9.915739059E0,9.121801376E0
5.418390140E-1,-7.084375620E-1,9.960956573E0,8.889809608E0
5.515893270E-1,-3.153113723E-1,1.135049534E1,4.589869499E0
5.613397440E-1,-6.192997098E-3,1.323561192E1,6.388682127E-1
5.710900560E-1,-1.316548586E-1,1.302686501E1,-4.846029282E-1
5.808404730E-1,-7.460888028E-1,1.106714058E1,7.576071024E-1
5.905908890E-1,-1.428169012E0,8.775685310E0,2.936097622E0
6.003412020E-1,-1.552653551E0,6.370944023E0,4.433666706E0
6.100916190E-1,-1.815690994E0,3.858004570E0,4.820021152E0
6.198420350E-1,-2.126936197E0,1.582774162E0,4.455203056E0
6.295923480E-1,-2.546734333E0,-1.978530884E-1,3.454001188E0
6.393427640E-1,-2.737968683E0,-1.162793159E0,1.225137472E0
6.490930770E-1,-1.763063550E0,-1.413419724E0,-5.666804314E-1
6.588434940E-1,3.768512309E-1,-1.450838089E0,-5.375747681E-1
6.685939100E-1,2.657465458E0,-1.710260391E0,6.849557161E-1
6.783443270E-1,4.207525730E0,-1.993643761E0,1.395437002E0
6.880946390E-1,4.817082405E0,-2.423538208E0,8.250204325E-1
6.978450560E-1,4.561056614E0,-3.631855965E0,-4.179850221E-1
7.075953690E-1,3.881446362E0,-5.954388142E0,-8.061296940E-1
7.173457850E-1,2.706986904E0,-8.532396317E0,-8.906211257E-1
7.270962020E-1,1.170885563E0,-1.051718044E1,-7.646525502E-1
7.368465140E-1,-4.709407687E-2,-1.145832825E1,-4.755809903E-1
7.465969310E-1,-6.497950554E-1,-1.155702019E1,-2.860203683E-1
7.563473480E-1,-9.415578246E-1,-1.154889584E1,-6.623828411E-1
7.660976600E-1,-1.133392811E0,-1.161448765E1,-1.166025400E0
7.758480770E-1,-8.058595657E-1,-1.140563679E1,-9.292294979E-1
7.855983890E-1,-4.460602999E-1,-1.103702164E1,-5.266789794E-1
7.953488060E-1,-3.433422744E-1,-1.058868980E1,-4.051826596E-1
8.050992230E-1,-1.977324784E-1,-9.973700523E0,-1.286931157E0
8.148495350E-1,-3.270832300E-1,-9.616182327E0,-2.340644360E0
8.245999520E-1,-1.039766550E0,-9.798509598E0,-2.319437981E0
8.343502640E-1,-1.733541727E0,-1.008132362E1,-1.269797325E0
8.441006810E-1,-1.902884483E0,-9.680099487E0,1.034233496E-1
8.538510980E-1,-1.403814077E0,-9.198311806E0,8.269159794E-1
8.636014100E-1,-7.208224535E-1,-8.831074715E0,7.887355685E-1
8.733518270E-1,4.771146178E-1,-7.803857803E0,6.223633885E-1
8.831021390E-1,1.749433398E0,-6.500443459E0,3.514193892E-1
8.928525560E-1,2.909678459E0,-5.430150032E0,3.399774432E-4
9.026028690E-1,3.489031553E0,-4.708292007E0,4.023637474E-1
9.123532850E-1,3.053092957E0,-4.624030113E0,1.227061868E0
9.221037020E-1,1.801605582E0,-4.621209145E0,2.128848791E0
9.318540140E-1,2.298120409E-1,-3.503707886E0,2.700676918E0
9.416044310E-1,-1.378867865E0,-9.851074219E-1,2.391292095E0
9.513547440E-1,-2.292746305E0,2.233549118E0,7.747099400E-1
9.611051600E-1,-2.485740423E0,5.989525795E0,-2.927500248E0
9.708554730E-1,-2.496944666E0,9.970356941E0,-6.166559219E0
9.806058890E-1,-2.590877056E0,1.459662247E1,-5.976403713E0
9.903563060E-1,-2.110392094E0,1.921490097E1,-3.467839956E0
1.000106619E0,-7.355688810E-1,2.237677574E1,-8.635973930E-2
1.009857035E0,4.895744622E-1,2.404852104E1,3.191593409E0
1.019607348E0,8.079976439E-1,2.393960190E1,4.732947350E0
1.029357764E0,-1.740943789E-1,2.218301201E1,4.245005131E0
1.039108077E0,-1.557893753E0,1.973167801E1,2.780834913E0
1.048858389E0,-2.482322216E0,1.617984772E1,4.076490998E-1
1.058608806E0,-3.386317015E0,1.203186893E1,-2.345009327E0
1.068359223E0,-3.820145607E0,8.373216629E0,-4.734057903E0
1.078109535E0,-3.019679070E0,5.761784554E0,-5.021063805E0
1.087859952E0,-1.732516766E0,3.520464897E0,-3.598948717E0
1.097610369E0,-7.264946401E-2,7.514181137E-1,-1.167671919E0
1.107360681E0,1.309354067E0,-1.698637009E0,1.409733772E0
1.117111098E0,1.731249690E0,-3.382233620E0,3.589804649E0
1.126861410E0,2.609663725E0,-4.299808025E0,5.009036541E0
1.136611827E0,3.355176687E0,-4.731988430E0,5.797438145E0
1.146362139E0,3.232041836E0,-5.386315346E0,4.853108406E0
1.156112556E0,2.499798298E0,-6.504283428E0,2.783580780E0
1.165862869E0,1.261654377E0,-7.931781769E0,1.152436256E0
1.175613285E0,-1.910877526E-1,-9.225235939E0,-1.954167336E-2
1.185363598E0,-1.818041801E0,-1.033481503E1,-1.411700964E0
1.195114014E0,-3.030673027E0,-1.104016209E1,-2.401961803E0
1.204864327E0,-3.278138161E0,-1.138074589E1,-2.769298792E0
1.214614744E0,-2.396246433E0,-1.161089897E1,-1.778097987E0
1.224365056E0,-9.063191414E-1,-1.149819183E1,4.161961973E-1
1.234115473E0,8.670711517E-2,-1.097381496E1,1.872990608E0
1.243865785E0,7.547183037E-1,-1.008610344E1,1.761481047E0
1.253616202E0,1.208296537E0,-9.403140068E0,7.133852243E-1
1.263366514E0,9.438407421E-1,-9.348687172E0,-5.681535006E-1
1.273116931E0,4.616950154E-1,-9.640135765E0,-1.361320257E0
1.282867244E0,4.698958099E-1,-9.590517044E0,-9.699628353E-1
1.292617660E0,7.963467836E-1,-9.401153564E0,8.557385206E-2
1.302367973E0,1.109475136E0,-9.343313217E0,2.288426876E0
1.312118389E0,1.525062442E0,-9.143096924E0,4.553983212E0
1.321868702E0,1.568868399E0,-8.914196968E0,5.364698410E0
1.331619119E0,1.090782642E0,-8.883486748E0,4.310459137E0
1.341369431E0,5.823897719E-1,-8.513137817E0,1.304762363E0
1.351119744E0,6.304945946E-1,-7.049597740E0,-1.670958042E0
1.360870160E0,1.520092726E0,-4.568188667E0,-2.876120806E0
1.370620473E0,2.441579580E0,-1.616627693E0,-2.805439711E0
1.380370889E0,2.418345451E0,1.464899063E0,-3.574241877E0
1.390121202E0,1.207275867E0,4.428092957E0,-5.761494637E0
1.399871619E0,-8.364002705E-1,7.168128014E0,-6.750701904E0
1.409621931E0,-3.270544052E0,1.019615459E1,-5.666718483E0
1.419372348E0,-5.071841717E0,1.370466232E1,-3.590739012E0
1.429122660E0,-5.148328304E0,1.815542030E1,-6.819006205E-1
1.438873077E0,-2.575059891E0,2.324812126E1,2.138613701E0
1.448623389E0,1.931195974E0,2.813635254E1,4.910798073E0
1.458373702E0,4.753642082E0,3.061747551E1,5.442258358E0
1.468124119E0,4.033351421E0,2.909524918E1,2.742442369E0
1.477874431E0,2.788576365E0,2.452318192E1,-4.901232719E-1
1.487624848E0,1.568561435E0,1.800498962E1,-1.993596673E0
1.497375160E0,4.018111825E-1,1.213405895E1,-1.589894533E0
1.507125577E0,-5.499882102E-1,8.049049377E0,-1.903546095E0
1.516875889E0,-1.327461243E0,5.303349495E0,-2.329977512E0
1.526626306E0,-1.142649293E0,3.838388443E0,-2.171665192E0
1.536376619E0,-3.484513164E-1,1.993255615E0,-1.403852820E0
1.546126931E0,2.146515548E-1,-7.032842636E-1,-9.325277805E-1
1.555877348E0,9.079411030E-1,-3.630344391E0,-4.131537676E-1
1.565627660E0,1.492219806E0,-6.372684956E0,6.957023144E-1
1.575378077E0,1.659840584E0,-8.712412834E0,2.513655663E0
1.585128389E0,1.306794167E0,-1.046624184E1,4.017853737E0
1.594878806E0,2.937904000E-1,-1.136188412E1,3.952472448E0
1.604629119E0,-6.267334819E-1,-1.117677975E1,1.745215654E0
1.614379431E0,-9.341175556E-1,-1.036823273E1,-6.828627586E-1
1.624129848E0,-7.513929605E-1,-1.000718498E1,-2.918681383E0
1.633880160E0,-1.607329696E-1,-1.004665375E1,-4.210328579E0
1.643630577E0,8.727394342E-1,-1.014317894E1,-4.540191650E0
1.653380889E0,1.508098483E0,-1.020864391E1,-3.084273100E0
1.663131202E0,1.058851004E0,-1.086718178E1,-5.878616571E-1
1.672881619E0,-4.138046503E-2,-1.186774158E1,1.858008862E0
1.682631931E0,-9.003565907E-1,-1.217656040E1,3.531784058E0
1.692382348E0,-1.163970113E0,-1.114159679E1,3.847144604E0
1.702132660E0,-5.879315138E-1,-9.039888382E0,3.391819715E0
1.711882973E0,4.323790669E-1,-7.172411442E0,2.435697317E0
1.721633389E0,1.285440922E0,-6.325512409E0,1.587293625E0
1.731383702E0,1.219162583E0,-6.751884937E0,1.655282140E0
1.741134014E0,-9.616342187E-2,-8.214881897E0,2.307796240E0
1.750884431E0,-1.649640799E0,-9.611867905E0,3.243692398E0
1.760634744E0,-2.271869659E0,-1.018038082E1,3.644025326E0
1.770385160E0,-1.782704949E0,-9.730564117E0,3.059611797E0
1.780135473E0,-7.715696096E-1,-8.143953323E0,1.030288935E0
1.789885785E0,5.285691023E-1,-6.092295647E0,-7.695457339E-1
1.799636202E0,1.456696749E0,-4.560512543E0,-1.649227858E0
1.809386514E0,1.206293464E0,-4.029085636E0,-1.428323150E0
1.819136931E0,1.747096479E-1,-3.700834274E0,-3.835870028E-1
1.828887244E0,-4.222482145E-1,-2.745489120E0,-5.336248875E-1
1.838637556E0,-8.414208889E-1,-4.247856140E-1,-3.526041269E0
1.848387973E0,-6.831388474E-1,5.868952751E0,-8.806246758E0
1.858138285E0,9.174204469E-1,1.422250175E1,-9.399332047E0
1.867888598E0,3.528531790E0,2.113432503E1,-3.835181713E0
1.877639014E0,4.358206272E0,2.441012955E1,2.799551249E0
1.887389327E0,2.957427502E0,2.501823807E1,5.669963360E0
1.897139639E0,2.141652584E0,2.564559555E1,4.797107220E0
1.906890056E0,1.846782923E0,2.452848434E1,1.227712035E0
1.916640369E0,1.208151460E0,2.215011978E1,-3.596764803E0
1.926390681E0,5.992523432E-1,1.949293709E1,-6.907656193E0
1.936141098E0,-4.203799069E-1,1.554817581E1,-9.503734589E0
1.945891410E0,-1.389682531E0,1.200401497E1,-9.372395515E0
1.955641723E0,-2.007244825E0,9.304881096E0,-5.863978386E0
1.965392139E0,-1.756101012E0,8.313537598E0,-2.037938833E-1
1.975142452E0,-6.125956178E-1,8.295817375E0,6.306118011E0
1.984892764E0,2.829698324E-1,8.472891808E0,1.182575512E1
1.994643181E0,5.601234436E-1,7.369473457E0,1.481388569E1
2.004393494E0,5.460594893E-1,4.099106789E0,1.484802532E1
2.014143806E0,8.773428202E-2,-7.228565216E-2,1.178092098E1
2.023894223E0,-6.669208407E-1,-4.128155708E0,6.810712337E0
2.033644535E0,-2.067813873E0,-8.416773796E0,2.637511492E0
2.043394848E0,-3.527448416E0,-1.207418060E1,-2.882192731E-1
2.053145264E0,-3.850726604E0,-1.373695469E1,-2.229363918E0
2.062895577E0,-2.660457373E0,-1.358603096E1,-4.115977287E0
2.072645889E0,-1.149823308E0,-1.382920170E1,-6.383109093E0
2.082396306E0,1.504230499E-1,-1.456577301E1,-6.934468269E0
2.092146619E0,5.898959041E-1,-1.484324837E1,-5.016613960E0
2.101896931E0,-1.519614905E-1,-1.439184856E1,-2.173134804E0
2.111647348E0,-1.962603092E0,-1.377712440E1,-2.785355449E-1
2.121397660E0,-3.133233309E0,-1.330405998E1,-5.862596631E-2
2.131147973E0,-3.005584717E0,-1.300295830E1,-1.383114755E-1
2.140898285E0,-1.692391992E0,-1.231576920E1,-2.031139135E-1
2.150648702E0,1.011349559E0,-1.093730164E1,7.087037563E-1
2.160399014E0,2.456366301E0,-9.424160004E0,1.344655991E0
2.170149327E0,2.928172112E0,-8.050593376E0,2.214908600E-2
2.179899744E0,2.878305912E0,-6.999155045E0,-1.833721876E0
2.189650056E0,2.134603500E0,-6.585851669E0,-3.049922228E0
2.199400369E0,1.272014141E0,-6.642048836E0,-2.034515142E0
2.209150785E0,1.970376372E-1,-7.264801979E0,1.714395642E0
2.218901098E0,-6.038451195E-1,-8.623061180E0,6.053012371E0
2.228651410E0,-8.879871368E-1,-9.141233444E0,9.008858681E0
2.238401723E0,-5.484240055E-1,-7.501994133E0,9.511330605E0
2.248152139E0,-1.063682884E-1,-4.859661579E0,5.722254276E0
2.257902452E0,-4.937601089E-1,-1.427882195E0,-8.134829402E-1
2.267652764E0,-1.830527186E0,1.798176765E0,-6.154984951E0
2.277403181E0,-2.458640337E0,4.286053658E0,-9.272686005E0
2.287153494E0,-2.025298595E0,6.269257545E0,-8.343023300E0
2.296903806E0,-4.777422845E-1,9.120767593E0,-1.807329059E0
2.306654119E0,4.146235585E-1,1.470227242E1,6.906143188E0
2.316404535E0,1.440333128E0,2.150319672E1,1.245146370E1
2.326154848E0,2.736587763E0,2.672671509E1,1.350332165E1
2.335905160E0,3.635159492E0,3.070392799E1,1.083272743E1
2.345655473E0,2.739449024E0,3.232293701E1,3.135087729E0
2.355405785E0,1.937876940E0,3.041357994E1,-3.277959585E0
2.365156202E0,7.727746367E-1,2.581193924E1,-6.130856514E0
2.374906514E0,3.065318167E-1,2.054096603E1,-7.191265583E0
2.384656827E0,-3.492444158E-1,1.440121841E1,-6.045243740E0
2.394407244E0,-1.428544164E0,8.036569595E0,-5.315517902E0
2.404157556E0,-3.306324959E0,2.472943306E0,-5.783832550E0
2.413907869E0,-4.787729740E0,-1.176505089E0,-6.619650841E0
2.423658181E0,-3.790406466E0,-3.257072449E0,-4.910003662E0
2.433408598E0,-2.252584934E0,-5.401359558E0,-1.159763813E0
2.443158910E0,8.762186766E-2,-6.625605106E0,3.307370663E0
2.452909223E0,3.331614971E0,-6.645257473E0,7.158021450E0
2.462659535E0,4.777574539E0,-7.363027573E0,8.584876060E0
2.472409952E0,4.730315685E0,-8.690974236E0,6.695644379E0
2.482160264E0,3.180085897E0,-1.010687351E1,3.610808611E0
2.491910577E0,1.274769783E0,-1.075227737E1,4.698047936E-1
2.501660889E0,1.696260571E-1,-1.103276062E1,-2.974488258E0
2.511411306E0,-6.165530682E-1,-1.142670155E1,-5.594648361E0
2.521161619E0,-1.131548524E0,-1.185115337E1,-6.640311718E0
2.530911931E0,-1.570478439E0,-1.251225376E1,-6.064991474E0
2.540662244E0,-1.586167812E0,-1.344427490E1,-4.296498299E0
2.550412660E0,-2.101058006E0,-1.426232052E1,-1.443613291E0
2.560162973E0,-1.838533878E0,-1.392459202E1,2.220142603E0
2.569913285E0,-2.999533117E-1,-1.206777096E1,4.859848976E0
2.579663598E0,6.165894270E-1,-9.895419121E0,4.794521809E0
2.589413910E0,9.424376488E-1,-8.491376877E0,2.071867943E0
2.599164327E0,7.285954952E-1,-8.074357033E0,-1.509205699E0
2.608914639E0,8.610166907E-1,-8.434149742E0,-4.128553867E0
2.618664952E0,1.485764027E0,-9.623638153E0,-4.689053535E0
2.628415264E0,-6.239590645E-1,-1.040019703E1,-2.054994106E0
2.638165577E0,-3.462991714E0,-1.128602314E1,1.834338784E0
2.647915994E0,-3.993451118E0,-1.128816128E1,4.595245361E0
2.657666306E0,-2.233713150E0,-9.504705429E0,4.776375294E0
2.667416619E0,7.321160436E-1,-6.142239571E0,2.472072601E0
2.677166931E0,2.308266640E0,-2.074774742E0,-8.880286217E-1
2.686917348E0,3.843838215E0,2.395083427E0,-1.533551455E0
2.696667660E0,5.011028290E0,4.150046349E0,-1.485713482E0
2.706417973E0,2.024211407E0,2.654461861E0,-9.842469692E-1
2.716168285E0,-5.267906785E-1,4.321545601E0,-2.386802435E-2
2.725918598E0,-3.738969564E0,9.117984772E0,9.859014153E-1
2.735668910E0,-2.895320177E0,1.590409470E1,1.072489858E0
2.745419327E0,-4.945511520E-1,2.222777176E1,-5.405946970E-1
2.755169639E0,-1.541103721E-1,2.628099823E1,-1.073076010E0
2.764919952E0,-1.613523483E0,2.677347183E1,2.983670235E-1
2.774670264E0,-6.765124798E-1,2.581637573E1,4.795676708E0
2.784420577E0,9.877072573E-1,2.431889343E1,7.602402210E0
2.794170994E0,2.591370106E0,2.252934837E1,3.292467833E0
2.803921306E0,3.216123581E0,2.018292999E1,-2.840130806E0
2.813671619E0,4.023634911E0,1.821657753E1,-6.026854515E0
2.823421931E0,5.259829044E0,1.605841064E1,-6.294034004E0
2.833172244E0,4.599773407E0,1.238740730E1,-5.169944763E0
2.842922556E0,2.691116333E0,7.512512207E0,-2.655763626E0
2.852672973E0,1.332948089E0,3.345344543E0,2.057588577E0
2.862423285E0,1.822591722E-1,-7.658872604E-1,7.151373386E0
2.872173598E0,-8.401958942E-1,-3.972130299E0,1.063910675E1
2.881923910E0,-1.622799397E0,-6.411002636E0,1.026552105E1
2.891674223E0,-1.961600184E0,-8.489546776E0,6.152129173E0
2.901424535E0,-2.099045753E0,-9.963846207E0,2.090425491E0
2.911174952E0,-2.066958189E0,-1.124459648E1,-3.736217618E-1
2.920925264E0,-1.844799519E0,-1.206105042E1,-1.819436073E0
2.930675577E0,-1.754156113E0,-1.274384308E1,-2.912131310E0
2.940425889E0,-1.791778088E0,-1.357713699E1,-3.803500891E0
2.950176202E0,-2.135615587E0,-1.420021248E1,-4.231124401E0
2.959926514E0,-2.404281855E0,-1.431782246E1,-3.723129272E0
2.969676827E0,-2.545669794E0,-1.373338890E1,-2.258383512E0
2.979427244E0,-1.955073237E0,-1.216542053E1,-5.062060356E-1
2.989177556E0,-7.268550992E-1,-1.002546120E1,1.492911875E-1
2.998927869E0,9.045362473E-1,-8.069784164E0,4.639033675E-1
3.008678181E0,2.406936407E0,-6.730021000E0,6.013901234E-1
3.018428494E0,2.686487675E0,-6.228277206E0,-5.701815486E-1
3.028178806E0,2.038333178E0,-6.448692799E0,-2.313633680E0
3.037929223E0,1.268670797E0,-7.368036270E0,-2.478882551E0
3.047679535E0,3.119972646E-1,-8.982640266E0,-6.094068289E-1
3.057429848E0,-9.979032874E-1,-1.078729057E1,1.423866034E0
3.067180160E0,-1.797442913E0,-1.149780083E1,2.545099020E0
3.076930473E0,-1.760197878E0,-1.104615974E1,3.022015095E0
3.086680785E0,-1.232727051E0,-1.024817944E1,2.598076105E0
3.096431098E0,-8.213102818E-1,-9.579001427E0,1.104772568E0
3.106181410E0,1.065727770E-1,-8.442829132E0,-7.302322984E-1
3.115931827E0,9.381102324E-1,-7.114130020E0,-2.551686764E0
3.125682139E0,1.302037597E0,-5.910323143E0,-3.648801565E0
3.135432452E0,1.443382502E0,-5.196226120E0,-3.590740919E0
3.145182764E0,1.525361300E0,-4.584808350E0,-2.804234266E0
3.154933077E0,5.930089951E-1,-3.371273518E0,-1.657263994E0
3.164683389E0,-5.221967101E-1,-1.105122566E0,-5.572484732E-1
3.174433702E0,-6.521317959E-1,3.232722282E0,-6.941478252E-1
3.184184014E0,-3.823669553E-1,9.643366814E0,-2.990058899E0
3.193934327E0,1.302643657E0,1.766607285E1,-4.950642586E0
3.203684744E0,2.665154219E0,2.548249435E1,-2.919310093E0
3.213435056E0,3.349771023E0,2.896776962E1,2.037285805E0
3.223185369E0,2.941239119E0,2.738097763E1,9.927345276E0
3.232935681E0,1.858756185E0,2.465509796E1,1.646525002E1
3.242685994E0,1.449431777E0,2.249887466E1,1.547684669E1
3.252436306E0,1.024586678E0,2.195000267E1,7.463922977E0
3.262186619E0,3.330108821E-1,2.109624290E1,-3.739211321E0
3.271936931E0,-6.247636080E-1,2.082136345E1,-1.242832279E1
3.281687244E0,-1.022110343E0,1.978834915E1,-1.317607212E1
3.291437556E0,-1.083710790E0,1.655372620E1,-8.132866859E0
3.301187973E0,-1.252617240E0,1.130834293E1,-3.159984827E0
3.310938181E0,-2.054012299E0,4.468770027E0,1.278450251E0
3.320688598E0,-2.806298733E0,-2.164131165E0,5.050515652E0
3.330438910E0,-3.742683649E0,-6.439147949E0,7.056781769E0
3.340189223E0,-3.780149460E0,-7.651917934E0,6.988244534E0
3.349939535E0,-2.497468710E0,-7.412636280E0,5.300318241E0
3.359689848E0,-1.304439902E0,-7.539563179E0,3.997543573E0
3.369440160E0,-7.076759934E-1,-8.473432541E0,3.862399101E0
3.379190473E0,-6.188980341E-1,-9.956363678E0,3.955637217E0
3.388940785E0,-7.272216082E-1,-1.169754028E1,3.071920872E0
3.398691098E0,-5.959327221E-1,-1.312532043E1,1.616470218E0
3.408441410E0,-1.137083888E0,-1.462235641E1,-4.556127787E-1
3.418191827E0,-2.927454948E0,-1.574523735E1,-4.308879852E0
3.427942139E0,-3.609672785E0,-1.514957619E1,-6.078496456E0
3.437692348E0,-3.679800034E0,-1.412271690E1,-4.971633434E0
3.447442764E0,-3.147600174E0,-1.324421120E1,-3.276156187E0
3.457193077E0,-2.098053455E0,-1.224370384E1,-2.040894270E0
3.466943389E0,-6.956738830E-1,-1.092940140E1,-8.173963428E-1
3.476693702E0,1.301249385E0,-8.885568619E0,7.572562099E-1
3.486444014E0,2.326593637E0,-6.709962368E0,1.172203302E0
3.496194327E0,2.323181391E0,-5.615108967E0,-8.235423565E-1
3.505944639E0,1.889020443E0,-6.166452885E0,-2.317069530E0
3.515694952E0,2.700958252E-1,-7.813261986E0,-7.720319033E-1
3.525445264E0,-5.978872776E-1,-9.887155533E0,1.714156985E0
3.535195577E0,-4.499694109E-1,-1.079390717E1,3.314692020E0
3.544945889E0,-1.356695592E-1,-1.021039772E1,2.382528067E0
3.554696202E0,5.104791522E-1,-8.496144295E0,3.374505639E-1
3.564446514E0,1.972623825E0,-5.897377014E0,-6.090386510E-1
3.574196827E0,3.177060604E0,-3.723727226E0,-2.486947179E-2
3.583947244E0,3.449659348E0,-2.378632545E0,-9.342970252E-1
3.593697556E0,2.931430578E0,-1.501375198E0,-3.030707836E0
3.603447869E0,1.926301241E0,-1.061659813E0,-3.634572506E0
3.613198181E0,-5.562722683E-2,-1.566864967E0,-3.976188183E0
3.622948494E0,-2.478060246E0,6.363821030E-1,-4.338685036E0
3.632698806E0,-2.902419329E0,7.804647446E0,-2.846756458E0
3.642449119E0,-7.702440023E-3,1.596046352E1,-4.023800492E-1
3.652199431E0,6.271839619E0,2.208126831E1,8.578254700E0
3.661949744E0,6.319490910E0,3.015730667E1,-7.806105018E-1
3.671700056E0,8.028111458E0,3.550957489E1,-3.190411806E0
3.681450264E0,7.399520874E0,3.101057434E1,1.213216591E1
3.691200681E0,5.712283134E0,2.793967056E1,8.058924675E0
3.700950994E0,4.352637291E0,2.520471191E1,-2.303541183E0
3.710701306E0,2.880182981E0,2.102717018E1,-6.849628925E0
3.720451619E0,-6.848416328E-1,1.460169601E1,-5.777866364E0
3.730201931E0,-3.542210579E0,8.672310829E0,-1.008638859E0
3.739952244E0,-5.221614361E0,4.283164024E0,2.621183395E0
3.749702556E0,-3.929989815E0,2.295044899E0,3.371575117E0
3.759452869E0,4.103899479E0,5.443994522E0,6.015992165E0
3.769203181E0,2.736623049E0,1.967977524E0,2.939683914E0
3.778953494E0,4.011486530E0,-3.559798241E0,2.837297916E0
3.788703806E0,2.746071100E0,-6.741842747E0,1.064916372E0
3.798454119E0,2.939410686E0,-8.548400879E0,-9.237661958E-1
3.808204431E0,1.169497252E0,-9.249432564E0,-8.734095097E-2
3.817954744E0,-1.187391043E0,-1.337703896E1,-1.920090914E0
3.827705056E0,-3.083600760E0,-1.508653164E1,-3.120055437E0
3.837455369E0,-2.901325941E0,-1.420845699E1,-2.990783215E0
3.847205681E0,-9.260005951E-1,-1.292709923E1,-3.866740942E0
3.856955994E0,9.886580110E-1,-1.185705471E1,-4.923388958E0
3.866706306E0,1.971615195E0,-1.133105373E1,-4.169259548E0
3.876456619E0,2.361897230E0,-1.095224667E1,-2.776114225E0
3.886206931E0,3.085390329E0,-1.016073418E1,-2.189275742E0
3.895957244E0,3.306474447E0,-8.472735405E0,-7.353885174E-1
3.905707556E0,1.852295995E0,-7.617697716E0,1.985826254E0
3.915457869E0,8.239475489E-1,-7.358716488E0,4.102766037E0
3.925208181E0,-4.740154147E-1,-7.403690338E0,4.845151424E0
3.934958494E0,-1.264590859E0,-7.226045609E0,4.015351295E0
3.944708806E0,-1.221449375E0,-7.264493465E0,3.023027658E0
3.954459119E0,-7.143590450E-1,-7.543714046E0,1.722238541E0
3.964209431E0,-4.032111168E-1,-8.103466988E0,1.243248940E0
3.973959744E0,-2.330201566E-1,-9.131608963E0,5.825655460E-1
3.983710056E0,2.007556856E-1,-9.824598312E0,-4.028189778E-1
3.993460369E0,-4.404443502E-2,-9.846749306E0,-1.158613443E0
4.003210681E0,-2.468803823E-1,-9.290914536E0,-1.201699257E0
4.012960994E0,-4.540159404E-1,-8.839095116E0,-1.293242455E0
4.022711306E0,-7.092325687E-1,-8.469641685E0,-1.201686978E0
4.032461619E0,-6.941350698E-1,-7.612001419E0,-9.398534298E-1
4.042211931E0,-5.465379357E-2,-5.804569721E0,-3.158450127E-4
4.051962244E0,-2.290388793E-1,-3.340666294E0,-9.187164307E-1
4.061712556E0,-1.226173162E0,-2.568950653E-1,-3.733420610E0
4.071462869E0,-2.529378176E0,4.675552368E0,-7.997562885E0
4.081213181E0,-4.162973404E0,1.040784836E1,-9.606784821E0
4.090963494E0,-4.915187359E0,1.539648247E1,-8.646162987E0
4.100713806E0,-2.136542797E0,1.932864761E1,-4.907598019E0
4.110464119E0,1.980748653E0,2.253692627E1,5.942435741E0
4.120214327E0,4.919803619E0,2.380082703E1,1.613138962E1
4.129964639E0,5.762873650E0,2.354153442E1,1.694664192E1
4.139714952E0,3.918381214E0,2.238713455E1,1.083307076E1
4.149465264E0,2.157272100E0,2.040374184E1,2.989628792E0
4.159215577E0,6.569749117E-1,1.912121582E1,-4.318921566E0
4.168965889E0,-1.300040483E0,1.699142265E1,-9.790356636E0
4.178716202E0,-1.798531651E0,1.370652676E1,-9.984258652E0
4.188466514E0,-1.370538950E0,1.002077579E1,-4.183901310E0
4.198216827E0,-1.166605711E0,5.934272766E0,2.941546202E0
4.207967139E0,-3.146584034E-1,2.100582123E0,7.743582249E0
4.217717452E0,7.078810930E-1,-1.661729813E-1,1.110315514E1
4.227467764E0,1.563077807E0,-2.002277374E0,1.187551689E1
4.237218077E0,1.333914757E0,-4.275800705E0,8.410521507E0
4.246968389E0,7.438377142E-1,-6.241279602E0,2.781024694E0
4.256718702E0,6.192439198E-1,-7.864788055E0,-6.857369542E-1
4.266469014E0,7.685257792E-1,-9.560357094E0,-2.552528858E0
4.276219327E0,9.442492127E-1,-1.088836384E1,-4.137223721E0
4.285969639E0,6.829624176E-1,-1.124808884E1,-4.517951012E0
4.295719952E0,9.430369139E-1,-1.076803112E1,-4.400667667E0
4.305470160E0,5.697974563E-1,-1.078143406E1,-4.701246262E0
4.315220473E0,9.692651629E-1,-1.042037773E1,-4.936855316E0
4.324970785E0,6.445719600E-1,-1.071933365E1,-4.118870258E0
4.334721098E0,-1.610489190E-2,-1.093074417E1,-2.759088516E0
4.344471410E0,1.301082373E-1,-1.029448605E1,-1.388300180E0
4.354221723E0,1.846350729E-1,-9.686051369E0,-4.876442552E-1
4.363972035E0,7.657140493E-3,-8.671049118E0,-3.957574964E-1
4.373722348E0,-1.302731395E0,-8.207590103E0,7.645455599E-1
4.383472660E0,-9.776067734E-1,-1.006477070E1,-2.406759560E-1
4.393222973E0,8.231031299E-1,-1.002450562E1,9.110468626E-1
4.402973285E0,1.288722634E0,-8.941142082E0,1.891233921E0
4.412723598E0,3.993740678E-2,-8.391341209E0,1.183646321E-1
4.422473910E0,-1.123827219E0,-8.714945793E0,-9.295094013E-1
4.432224119E0,-1.842324734E0,-9.125593185E0,4.320748329E0
4.441974431E0,-3.556416035E0,-9.836905479E0,5.756189346E0
4.451724744E0,-2.305025339E0,-8.802567482E0,5.883020401E0
4.461475056E0,8.490764499E-1,-6.365493774E0,3.122851849E0
4.471225369E0,2.047090769E0,-5.274561882E0,8.980511427E-1
4.480975681E0,3.011596680E0,-3.910604000E0,4.713003933E-1
4.490725889E0,2.142270088E0,-6.422777176E-1,-2.905690432E0
4.500476306E0,-6.246459484E-1,3.976778984E0,-7.799120426E0
4.510226514E0,-1.557608128E0,9.728525162E0,-1.248977470E1
4.519976931E0,-8.577859402E-1,1.451772594E1,-1.052552891E1
4.529727244E0,-1.335781813E0,1.800262070E1,-2.645628452E0
4.539477452E0,-4.493950307E-1,2.229474449E1,3.549649000E0
4.549227764E0,2.317448616E0,2.457049561E1,7.568427086E0
4.558978077E0,4.014636517E0,2.493960190E1,8.486175537E0
4.568728389E0,4.782824516E0,2.528533745E1,7.252353668E0
4.578478702E0,4.174710274E0,2.396535873E1,5.603636265E0
4.588229014E0,2.619017839E0,2.238767624E1,2.649128199E0
4.597979327E0,-2.086623162E-1,2.043151283E1,-2.179155350E-1
4.607729639E0,-2.641314268E0,1.718593979E1,-1.826462269E0
4.617479848E0,-3.721899748E0,1.320664978E1,1.278079510E0
4.627230160E0,-2.638827324E0,9.387711525E0,5.440230846E0
4.636980473E0,-6.125434637E-1,5.195347786E0,6.960590363E0
4.646730785E0,6.610082984E-1,5.183992386E-1,6.706426620E0
4.656481098E0,1.660606623E0,-3.683055878E0,4.984210968E0
4.666231410E0,2.521840334E0,-6.999811172E0,2.765940666E0
4.675981723E0,1.945643187E0,-1.024040985E1,-2.661311626E-1
4.685732035E0,1.004933119E0,-1.278025055E1,-2.479259491E0
4.695482244E0,3.221960664E-1,-1.384508419E1,-4.124791145E0
4.705232556E0,-1.565636694E-1,-1.403206253E1,-5.683153629E0
4.714982869E0,2.234767079E-1,-1.380097008E1,-6.259932518E0
4.724733181E0,4.467413723E-1,-1.310898209E1,-6.503467083E0
4.734483494E0,8.483113050E-1,-1.227727318E1,-6.290301323E0
4.744233806E0,1.631949902E0,-1.163177776E1,-3.889723301E0
4.753984119E0,1.376971245E0,-1.133690739E1,-2.767415047E0
4.763734431E0,1.261215210E0,-1.096545506E1,-1.462755322E0
4.773484639E0,1.573132277E0,-1.046366310E1,7.727698088E-1
4.783234952E0,1.225603461E0,-1.005456161E1,2.014822006E0
4.792985264E0,6.215454340E-1,-1.008686447E1,2.745316982E0
4.802735577E0,2.665038705E-1,-1.015068531E1,2.006454945E0
4.812485889E0,4.854133725E-1,-1.014722061E1,4.999780655E-1
4.822236202E0,-1.182850897E-1,-1.093390560E1,1.131904721E-1
4.831986514E0,1.987805814E-1,-1.104329586E1,7.907664776E-2
4.841736723E0,4.095188379E-1,-1.109603691E1,7.279732227E-1
4.851487035E0,1.847704947E-1,-1.101538754E1,6.224890947E-1
4.861237348E0,-2.632047534E-1,-1.052840137E1,-5.953497887E-1
4.870987660E0,-1.307762563E-1,-9.571926117E0,-1.323024035E0
4.880737973E0,2.461770177E-2,-8.465472221E0,-1.168441176E0
4.890488285E0,-1.223683357E-2,-6.875203609E0,-1.421084404E0
4.900238494E0,-2.395104766E-1,-4.862513065E0,-1.517904878E0
4.909988806E0,-7.339823842E-1,-2.692016602E0,-4.356659651E-1
4.919739119E0,-1.072499037E0,6.703176498E-1,-4.711499214E-1
4.929489431E0,-2.969258547E0,5.108886719E0,-1.232666373E0
4.939239744E0,-5.425438404E0,1.166915798E1,-3.734637737E0
4.948990056E0,-6.929489136E0,1.809918213E1,-4.607509136E0
4.958740369E0,-5.195171833E0,2.327561951E1,-1.281674862E0
4.968490577E0,-3.426940441E-1,2.850724030E1,4.098071098E0
4.978240889E0,5.304921627E0,3.259899521E1,1.056791496E1
4.987991202E0,8.513945580E0,3.411322784E1,1.442815495E1
4.997741514E0,7.603903294E0,3.315726471E1,1.088307953E1
5.007491827E0,3.253647327E0,3.018568420E1,2.571818590E0
5.017242139E0,-1.315979958E0,2.548636055E1,-4.198987484E0
5.026992348E0,-4.098768711E0,2.040045166E1,-7.981402397E0
5.036742660E0,-3.973954201E0,1.560629845E1,-8.210086823E0
5.046492973E0,-1.575393677E0,1.065766048E1,-5.516570091E0
5.056243285E0,2.365857065E-1,5.019760132E0,-2.300815582E0
5.065993598E0,1.574039698E0,-3.916349411E-1,2.112466693E-1
5.075743910E0,2.435222864E0,-5.233187199E0,2.238707542E0
5.085494119E0,2.380879641E0,-9.231554031E0,3.896603107E0
5.095244431E0,7.424855232E-1,-1.233185291E1,3.266580105E0
5.104994744E0,-2.013205290E0,-1.438182259E1,6.536001563E-1
5.114745056E0,-3.200397491E0,-1.493550205E1,-5.162151456E-1
5.124495369E0,-2.974190950E0,-1.463359547E1,-6.939229965E-1
5.134245577E0,-2.024173498E0,-1.437068748E1,-1.142013669E0
5.143995889E0,-6.660506129E-1,-1.379827595E1,-2.053492069E0
5.153746202E0,5.555807948E-1,-1.275971889E1,-3.209749460E0
5.163496514E0,7.636656761E-1,-1.178820992E1,-3.376026154E0
5.173246827E0,1.094324231E0,-1.081637383E1,-2.320574284E0
5.182997139E0,1.640662313E0,-9.855997086E0,-6.518497467E-1
5.192747348E0,1.600843430E0,-9.429756165E0,3.147096932E-1
5.202497660E0,1.364980817E0,-9.369255066E0,1.212218523E0
5.212247973E0,1.210705757E0,-9.449285507E0,2.307054520E0
5.221998285E0,1.129175901E0,-9.373386383E0,2.480694532E0
5.231748598E0,8.494805098E-1,-9.192092896E0,2.688910961E0
5.241498806E0,2.823213637E-1,-9.287802696E0,2.755476952E0
5.251249119E0,-2.506377101E-1,-9.672072411E0,2.390897036E0
5.260999431E0,-7.204384208E-1,-9.919519424E0,1.604336977E0
5.270749744E0,-9.118723869E-1,-9.944567680E0,7.410042882E-1
5.280499952E0,-2.885501385E-1,-9.833461761E0,2.453906536E-1
5.290250264E0,7.758280635E-2,-9.836593628E0,-9.139041901E-1
5.300000577E0,2.635534406E-1,-9.660189629E0,-1.173158407E0
5.309750889E0,7.319315672E-1,-9.142538071E0,-6.838425994E-1
5.319501202E0,6.766210198E-1,-8.957558632E0,-9.807024598E-1
5.329251410E0,5.237309933E-1,-8.529459953E0,-9.065715075E-1
5.339001723E0,5.290655494E-1,-8.183935165E0,-8.230286837E-2
5.348752035E0,1.801709533E-1,-7.732534409E0,3.826854825E-1
5.358502348E0,-1.612757742E-1,-6.838840008E0,-2.936285734E-2
5.368252660E0,-3.696028888E-1,-5.092087746E0,-8.806877136E-1
5.378002869E0,-6.779748797E-1,-1.366766930E0,-4.346372604E0
5.387753181E0,-1.522928476E0,3.310472488E0,-7.271859169E0
5.397503494E0,-1.026404738E0,9.145098686E0,-5.632265091E0
5.407253806E0,8.597833514E-1,1.483258820E1,-1.641849279E0
5.417004014E0,1.438951254E0,1.955792618E1,4.337196350E0
5.426754327E0,7.154365778E-1,2.325861168E1,9.703292847E0
5.436504639E0,3.916226327E-1,2.596089172E1,1.269585419E1
5.446254952E0,1.799535155E0,2.784957886E1,1.299172211E1
5.456005264E0,1.711374164E0,2.755828094E1,8.752668381E0
5.465755473E0,5.395014286E-1,2.688886642E1,1.011870861E0
5.475505785E0,3.122842014E-1,2.613368797E1,-3.956963301E0
5.485255994E0,1.193923712E0,2.383669090E1,-5.173821926E0
5.495006410E0,1.967483997E0,2.043465996E1,-4.967913628E0
5.504756619E0,2.171632290E0,1.668576241E1,-3.157738686E0
5.514506931E0,1.410933018E0,1.293472958E1,1.152473807E0
5.524257244E0,1.071277559E-1,9.108572006E0,6.597602367E0
5.534007556E0,-1.688063979E0,4.549123764E0,9.363180161E0
5.543757764E0,-3.089562654E0,2.702770233E-1,8.120384216E0
5.553508077E0,-2.171128273E0,-2.182256699E0,6.034446239E0
5.563258389E0,7.116221786E-1,-3.707732201E0,4.409563065E0
5.573008702E0,2.291990280E0,-5.935882568E0,1.899036288E0
5.582758910E0,1.753308415E0,-8.290083885E0,-4.212066531E-1
5.592509223E0,-1.256496608E-1,-1.073746872E1,-3.070853472E0
5.602259535E0,-1.529540777E0,-1.268385029E1,-5.477775097E0
5.612009848E0,-2.411567211E0,-1.390941429E1,-6.940557480E0
5.621760056E0,-1.877362251E0,-1.458555317E1,-7.796019554E0
5.631510369E0,-1.326148272E0,-1.453154755E1,-8.423534393E0
5.641260681E0,-3.880556524E-1,-1.381075287E1,-8.086483955E0
5.651010994E0,1.753808022E0,-1.213161087E1,-5.119205475E0
5.660761202E0,2.876040697E0,-1.063691521E1,-7.973897457E-1
5.670511514E0,1.968615770E0,-9.759181976E0,1.579003811E0
5.680261827E0,8.537787199E-1,-9.642362595E0,2.130815744E0
5.690012139E0,4.584426880E-1,-9.938674927E0,2.190509319E0
5.699762348E0,3.157036901E-1,-1.014580441E1,1.518435240E0
5.709512660E0,4.602839649E-1,-1.012547684E1,2.587047815E-1
5.719262973E0,9.720727205E-1,-9.660086632E0,-5.423974991E-2
5.729013285E0,1.568268180E0,-9.226709366E0,1.411128044E-1
5.738763494E0,1.853308320E0,-8.800168991E0,-3.187308311E-1
5.748513806E0,2.157115936E0,-7.730960369E0,-1.904404283E0
5.758264119E0,1.368880749E0,-7.233684063E0,-1.374603152E0
5.768014327E0,-7.567256093E-1,-7.857249737E0,-5.358902216E-1
5.777764639E0,-1.882050276E0,-7.658220768E0,7.053276300E-1
5.787514952E0,-1.859330416E0,-6.558879852E0,1.130298257E0
5.797265264E0,-7.420419455E-1,-5.849402905E0,1.903983474E0
5.807015473E0,1.758214831E-1,-5.619038582E0,2.580886841E0
5.816765785E0,6.799153090E-1,-5.519296646E0,2.319293022E0
5.826516098E0,7.320204973E-1,-4.262725830E0,1.985176086E0
5.836266410E0,2.029567957E-2,-1.685685158E0,5.143325329E-1
5.846016619E0,-2.300471067E0,2.656687737E0,-4.053304195E0
5.855766931E0,-5.081061363E0,7.751573563E0,-8.456110001E0
5.865517244E0,-4.067626953E0,1.233195496E1,-7.515332222E0
5.875267452E0,-8.004349470E-1,1.557991123E1,-2.208006859E0
5.885017764E0,2.144106627E0,1.855917358E1,4.407454967E0
5.894768077E0,2.328671455E0,1.935105896E1,8.729333878E0
5.904518285E0,9.234946966E-1,1.893274307E1,1.014821815E1
5.914268598E0,-8.760836720E-2,1.853963470E1,8.773061752E0
5.924018910E0,3.842255175E-1,1.867751122E1,4.562204838E0
5.933769223E0,1.151392102E0,1.820277786E1,-1.319404960E0
5.943519431E0,1.121011019E0,1.640687561E1,-5.853566170E0
5.953269744E0,1.989773512E0,1.455260658E1,-6.383436680E0
5.963020056E0,2.889066935E0,1.238346958E1,-4.970575809E0
5.972770264E0,1.126160622E0,9.621819496E0,-3.573334455E0
5.982520577E0,-2.005894661E0,6.810770988E0,-4.960371852E-1
5.992270889E0,-5.174295425E0,3.829704285E0,3.930052996E0
6.002021098E0,-5.491630077E0,1.357336044E0,7.647618771E0
6.011771410E0,-3.903416395E0,-5.932474136E-1,7.879017830E0
6.021521723E0,-1.290417671E0,-3.077902794E0,6.645897388E0
6.031272035E0,7.537820935E-1,-6.443250179E0,2.538751125E0
6.041022244E0,2.617964745E0,-8.674185753E0,-1.580045581E0
6.050772556E0,3.868306875E0,-9.480357170E0,-3.287143230E0
6.060522869E0,4.204767227E0,-9.392511368E0,-4.883179665E0
6.070273077E0,3.034661293E0,-9.656622887E0,-6.311344147E0
6.080023389E0,7.890022993E-1,-9.712275505E0,-6.555158138E0
6.089773702E0,-1.174176931E0,-9.444961548E0,-6.013672829E0
6.099523910E0,-1.911227226E0,-9.472955704E0,-3.369191647E0
6.109274223E0,-1.883931994E0,-9.765026093E0,-2.959630489E-1
6.119024431E0,-1.243054986E0,-9.446623802E0,1.906480312E0
6.128774744E0,-2.901448011E-1,-8.800415039E0,3.307926655E0
6.138525056E0,2.931112647E-1,-8.613972664E0,3.167610168E0
6.148275369E0,1.240905046E0,-8.629703522E0,2.064051151E0
6.158025577E0,2.088929653E0,-8.234092712E0,9.638043642E-1
6.167775889E0,2.180054426E0,-7.877344131E0,1.496218443E-1
6.177526202E0,1.695844054E0,-7.974747181E0,-3.825786114E-1
6.187276410E0,1.215946913E0,-7.913162708E0,-5.881712437E-1
6.197026723E0,-1.036835611E-1,-8.215939522E0,-3.723857403E-1
6.206777035E0,-1.370409369E0,-8.665415764E0,-6.632531881E-1
6.216527244E0,-2.025083303E0,-8.893194199E0,-1.212008595E0
6.226277556E0,-1.705388784E0,-8.750494957E0,-1.538179994E0
6.236027869E0,-4.321898818E-1,-8.235939980E0,-1.638584614E0
6.245778077E0,1.249567509E0,-7.457809448E0,-2.122802258E0
6.255528389E0,2.417113304E0,-6.536536694E0,-3.347203255E0
6.265278598E0,2.440554380E0,-4.930975914E0,-3.691043377E0
6.275028910E0,1.637866974E0,-2.539038181E0,-4.230119228E0
6.284779223E0,2.538314462E-1,-1.218996048E-1,-5.750676632E0
6.294529535E0,-1.200241089E0,2.724109650E0,-7.003606319E0
6.304279744E0,-2.239642382E0,6.361569405E0,-6.300049305E0
6.314030056E0,-1.674747586E0,1.045731354E1,-2.570589066E0
6.323780369E0,3.665910959E-1,1.453695869E1,1.886671185E0
6.333530577E0,1.954552293E0,1.818727493E1,5.236194134E0
6.343280889E0,1.907435656E0,2.047920990E1,6.936802864E0
6.353031202E0,5.971449614E-1,2.168192482E1,7.355383873E0
6.362781410E0,-6.845197678E-1,2.270643997E1,7.660542011E0
6.372531723E0,-1.301870584E0,2.267816544E1,7.027621269E0
6.382282035E0,-7.405358553E-1,2.115130806E1,5.987342358E0
6.392032244E0,3.352738023E-1,1.871153259E1,4.123941422E0
6.401782556E0,1.516034245E0,1.586151695E1,1.547433853E0
6.411532869E0,2.289359331E0,1.249383640E1,-6.065816879E-1
6.421283077E0,2.048348188E0,9.412492752E0,-1.700611115E0
6.431033389E0,8.773678541E-1,6.296984673E0,-1.522164345E0
6.440783598E0,-1.311253428E0,3.388127327E0,-1.347391129E0
6.450533910E0,-3.070302486E0,8.206739426E-1,-1.059030414E0
6.460284223E0,-3.062948227E0,-1.155296326E0,3.425955772E-3
6.470034431E0,-1.589886785E0,-2.719498158E0,1.465832949E0
6.479784744E0,1.684291512E-1,-4.242197990E0,2.260858059E0
6.489535056E0,1.855593443E0,-5.620536804E0,3.108212471E0
6.499285264E0,2.726126194E0,-7.257832527E0,3.038254261E0
6.509035577E0,2.342327356E0,-8.886287689E0,1.766168356E0
6.518785785E0,1.417175770E0,-9.914332390E0,-6.171882153E-2
6.528536098E0,5.649554133E-1,-1.073629856E1,-1.847778320E0
6.538286410E0,1.333702207E-1,-1.100169277E1,-2.686041832E0
6.548036619E0,1.141437590E-1,-1.085166454E1,-3.571414232E0
6.557786931E0,2.095770240E-1,-1.094281387E1,-4.261699200E0
6.567537244E0,4.871031344E-1,-1.101478195E1,-3.692914486E0
6.577287452E0,7.710347176E-1,-1.068678093E1,-1.993404150E0
6.587037764E0,1.230406642E0,-1.015192032E1,-4.226254225E-1
6.596787973E0,1.377679825E0,-1.006100655E1,5.426589251E-1
6.606538285E0,1.195075750E0,-1.003139687E1,8.866211176E-1
6.616288494E0,8.035635352E-1,-9.853144646E0,6.949809790E-1
6.626038806E0,5.210292339E-1,-9.567565918E0,4.312978983E-1
6.635789119E0,4.156320095E-1,-9.482277870E0,-2.010655403E-2
6.645539431E0,3.482346237E-1,-9.373485565E0,-1.034845471E0
6.655289639E0,3.592144549E-1,-9.088056564E0,-1.640082836E0
6.665039952E0,4.220032096E-1,-8.739274979E0,-1.455322385E0
6.674790160E0,4.611771703E-1,-8.432315826E0,-1.384910941E0
6.684540473E0,1.560783535E-1,-7.997191429E0,-1.663379908E0
6.694290785E0,-5.024711490E-1,-7.641938210E0,-1.760603309E0
6.704040994E0,-8.608554602E-1,-7.393507004E0,-9.755017757E-1
6.713791306E0,-8.152971268E-1,-6.543609142E0,-1.442401409E-1
6.723541514E0,-3.014459610E-1,-5.043272972E0,-5.822576880E-1
6.733291827E0,-1.544664502E-1,-3.408647060E0,-1.567306042E0
6.743042139E0,-3.674146831E-1,-9.768209457E-1,-3.220857143E0
6.752792348E0,-2.821000218E-1,2.012038231E0,-5.391532898E0
6.762542660E0,-3.834678829E-1,5.500162125E0,-6.022349358E0
6.772292869E0,-3.072532415E-1,1.006776237E1,-3.788535118E0
6.782043181E0,-2.501971722E-1,1.456116486E1,-1.116251826E0
6.791793389E0,6.176253557E-1,1.822409821E1,1.543603182E0
6.801543702E0,1.457427859E0,2.063041306E1,5.048417568E0
6.811293910E0,1.769212723E0,2.171539307E1,6.700021744E0
6.821044223E0,1.627995133E0,2.207609749E1,6.242567062E0
6.830794535E0,1.735570908E0,2.168356514E1,5.223021507E0
6.840544744E0,1.806717157E0,2.124165726E1,5.249649525E0
6.850295056E0,1.702422261E0,1.997414970E1,5.417181492E0
6.860045369E0,1.431087017E0,1.780498505E1,4.913719177E0
6.869795577E0,2.833598256E-1,1.526203823E1,3.728476048E0
6.879545889E0,-1.703098297E0,1.276503563E1,2.633790255E0
6.889296098E0,-4.507050037E0,1.005413246E1,1.868565321E0
6.899046410E0,-6.684915543E0,6.424466133E0,1.317810059E0
6.908796723E0,-7.120890141E0,2.551429749E0,1.257847548E0
6.918546931E0,-5.719934464E0,-9.725923538E-1,1.613123178E0
6.928297244E0,-2.565878391E0,-3.028141975E0,8.293075562E-1
6.938047452E0,3.426961601E-1,-4.928396225E0,3.942103386E-1
6.947797660E0,2.445675850E0,-7.522053719E0,4.929661751E-2
6.957547973E0,3.738120794E0,-9.485562325E0,-1.212399364E0
6.967298285E0,3.793911457E0,-1.050047302E1,-3.483637810E0
6.977048598E0,3.195892572E0,-1.106011677E1,-5.213904858E0
6.986798806E0,2.826866865E0,-1.108207417E1,-5.881855965E0
6.996549119E0,2.024141550E0,-1.105744934E1,-6.382843018E0
7.006299327E0,1.077914357E0,-1.103801727E1,-5.553555965E0
7.016049639E0,-9.478339553E-2,-1.066617870E1,-4.792858601E0
7.025799848E0,-1.141794205E0,-1.021577644E1,-3.632895708E0
7.035550160E0,-1.467946053E0,-9.635847092E0,-1.781883836E0
7.045300369E0,-1.160655737E0,-9.371091843E0,-2.758094072E-1
7.055050681E0,-4.356984198E-1,-9.335178375E0,8.100743294E-1
7.064800994E0,9.494692087E-2,-9.241194725E0,1.307138085E0
7.074551202E0,5.297427177E-1,-9.193465233E0,1.016693950E0
7.084301514E0,1.166836262E0,-9.206378937E0,9.881912470E-1
7.094051723E0,1.691306472E0,-9.158461571E0,1.122055769E0
7.103802035E0,1.716717720E0,-9.067763329E0,4.285147190E-1
7.113552244E0,1.324697495E0,-9.042343140E0,-9.034022093E-1
7.123302556E0,8.153790832E-1,-9.028149605E0,-2.074882746E0
7.133052764E0,3.067895174E-1,-8.731757164E0,-2.731059313E0
7.142803077E0,2.637259364E-1,-7.735500813E0,-2.360392094E0
7.152553389E0,4.689994752E-1,-6.518135071E0,-1.495171070E0
7.162303598E0,8.828366995E-1,-5.234787464E0,-6.763803959E-1
7.172053910E0,1.460989833E0,-3.932923317E0,-8.372187614E-2
7.181804119E0,1.569324970E0,-2.468265057E0,8.703523874E-1
7.191554431E0,1.037448883E0,-4.632625580E-1,9.981724024E-1
7.201304639E0,-2.008461952E-2,1.941099167E0,-5.016663671E-1
7.211054848E0,-1.354296207E0,5.070148468E0,-2.613858700E0
7.220805160E0,-2.121474028E0,8.539038658E0,-2.610904217E0
7.230555473E0,-1.301126957E0,1.170867443E1,-8.543636799E-1
7.240305681E0,5.655884743E-1,1.488903236E1,3.511762619E-1
7.250055994E0,1.271724463E0,1.676720047E1,1.349218249E0
7.259806202E0,1.201215386E0,1.726482773E1,2.383104086E0
7.269556514E0,8.666551113E-1,1.807322311E1,3.378736496E0
7.279306827E0,3.225445747E-2,1.862872887E1,3.868414164E0
7.289057035E0,-2.331815064E-1,1.828333664E1,3.673685074E0
7.298807348E0,2.285951376E-2,1.761851501E1,3.136259794E0
7.308557556E0,2.028979659E-1,1.660694504E1,1.526021838E0
7.318307869E0,3.635823727E-2,1.495887184E1,-4.384050965E-1
7.328058077E0,4.209461808E-2,1.261685753E1,-1.440423369E0
7.337808389E0,2.343678027E-1,9.733705521E0,-1.126408339E0
7.347558598E0,4.602293074E-1,6.684186935E0,-1.808042526E-1
7.357308910E0,2.879410088E-1,3.271329880E0,8.762866259E-1
7.367059119E0,-3.638911247E-1,-1.225004196E-1,1.995690584E0
7.376809431E0,-1.306409836E0,-2.946470261E0,2.339413643E0
7.386559639E0,-1.693980217E0,-4.716241360E0,2.562819004E0
7.396309952E0,-1.769900560E0,-5.835616112E0,2.298161030E0
7.406060160E0,-1.718926191E0,-6.973945141E0,1.090320349E0
7.415810369E0,-1.490865231E0,-8.051345825E0,-3.595793247E-2
7.425560681E0,-1.191791177E0,-8.745876312E0,-1.050247908E0
7.435310889E0,-4.965364337E-1,-9.235212326E0,-2.237907648E0
7.445061202E0,3.222000599E-1,-9.536507607E0,-2.593300104E0
7.454811514E0,1.020787716E0,-9.388690948E0,-3.096031666E0
7.464561723E0,1.736036777E0,-9.262191772E0,-3.467303276E0
7.474312035E0,1.976401091E0,-9.245094299E0,-2.610349417E0
7.484062244E0,1.912060261E0,-9.106582642E0,-8.331251144E-1
7.493812556E0,1.544141889E0,-8.769399643E0,2.304649353E-1
7.503562764E0,1.036440730E0,-8.433161736E0,1.180188656E-1
7.513313077E0,5.306012034E-1,-8.461864471E0,-3.743171692E-5
7.523063285E0,8.171385527E-2,-8.675467491E0,1.398606300E-1
7.532813598E0,-1.258995533E-1,-8.720594406E0,-1.746439934E-2
7.542563910E0,-3.246891499E-2,-8.721679688E0,-2.225425243E-1
7.552314119E0,9.807515144E-2,-8.661236763E0,-8.605570793E-1
7.562064327E0,3.869102001E-1,-8.493350029E0,-1.441371918E0
7.571814639E0,9.764683247E-1,-8.151601791E0,-1.461303830E0
7.581564952E0,1.695887566E0,-7.930738449E0,-9.995189905E-1
7.591315160E0,2.139380455E0,-7.633550167E0,-3.817291260E-1
7.601065369E0,1.819666862E0,-7.060833931E0,4.073469639E-1
7.610815681E0,8.430777192E-1,-6.623885155E0,5.130144358E-1
7.620565994E0,-3.058686256E-1,-5.915467262E0,-5.107755661E-1
7.630316202E0,-9.434422851E-1,-4.141607285E0,-2.388594151E0
7.640066514E0,-1.250717282E0,-1.939385414E0,-4.439819336E0
7.649816723E0,1.927882433E-2,6.568555832E-1,-5.938869476E0
7.659566931E0,2.240903139E0,4.060344696E0,-4.677482128E0
7.669317139E0,2.390636444E0,7.182305336E0,-1.633043170E0
7.679067556E0,6.869357824E-2,1.119164276E1,1.273740530E0
7.688817764E0,-4.137530327E0,1.566006470E1,4.195221901E0
7.698567973E0,-6.735448837E0,1.853396606E1,6.205627441E0
7.708318285E0,-7.113698959E0,1.932486343E1,7.388892651E0
7.718068494E0,-6.374994755E0,2.038475800E1,8.022361755E0
7.727818806E0,-4.816828251E0,2.117713165E1,7.013776779E0
7.737569014E0,-2.789149523E0,1.994337463E1,4.474256992E0
7.747319327E0,-4.786734581E-1,1.802336884E1,1.272839427E0
7.757069535E0,1.525828958E0,1.637643051E1,-2.049530268E0
7.766819848E0,3.314504147E0,1.403618908E1,-2.827467918E0
7.776570056E0,4.143152714E0,1.145803165E1,-1.294480324E0
7.786320369E0,3.004052639E0,9.332596779E0,5.164110661E-2
7.796070577E0,9.452448487E-1,7.140517235E0,1.735531211E0
7.805820889E0,6.710255146E-2,4.656503677E0,2.519922256E0
7.815571098E0,2.401185036E-2,2.076060295E0,1.943107128E0
7.825321410E0,4.611724615E-2,-3.461618423E-1,1.356893420E0
7.835071619E0,4.549167752E-1,-2.398139000E0,8.213144541E-1
7.844821931E0,4.400449395E-1,-4.606560707E0,-1.326807737E-1
7.854572139E0,-4.405373335E-2,-6.942109108E0,-9.787276983E-1
7.864322452E0,-5.703377128E-1,-8.988807678E0,-1.797742367E0
7.874072660E0,-4.927765727E-1,-1.017572212E1,-3.205055237E0
7.883822973E0,-8.049809933E-2,-1.054804897E1,-4.261764526E0
7.893573181E0,1.793317795E-1,-1.049771690E1,-4.318103790E0
7.903323494E0,6.646093726E-1,-1.072244072E1,-4.531082153E0
7.913073702E0,1.226178169E0,-1.091945076E1,-4.074802876E0
7.922823910E0,1.234297872E0,-1.070486450E1,-3.668464184E0
7.932574223E0,9.885579348E-1,-1.035555458E1,-2.929600000E0
7.942324431E0,1.365922451E0,-9.796350479E0,-1.416371584E0
7.952074744E0,1.777173996E0,-9.535658836E0,4.093877077E-1
7.961824952E0,1.861797094E0,-9.751209259E0,1.575377584E0
7.971575264E0,1.664372206E0,-1.002550602E1,1.834999800E0
7.981325473E0,1.389180541E0,-1.054303169E1,1.736257553E0
7.991075785E0,1.423286915E0,-1.092621231E1,1.727379322E0
8.000825994E0,1.232091308E0,-1.086855316E1,9.712897539E-1
8.010576306E0,7.071998119E-1,-1.045540237E1,-4.647949338E-1
8.020326514E0,6.519305706E-2,-1.002047539E1,-1.362335324E0
8.030076827E0,-3.496426344E-1,-9.675195694E0,-2.471166611E0
8.039827035E0,-3.125525713E-1,-9.204433441E0,-3.422651291E0
8.049577348E0,2.558538318E-1,-8.737555504E0,-3.804816961E0
8.059327556E0,1.047116756E0,-8.124928474E0,-3.725568295E0
8.069077869E0,1.254555702E0,-7.148991108E0,-2.203519821E0
8.078828077E0,1.528536320E0,-5.405763626E0,-6.372612715E-1
8.088578285E0,1.862452030E0,-3.118554115E0,-7.324713469E-1
8.098328598E0,1.632286787E0,7.012176514E-2,-1.800598741E0
8.108078806E0,6.577772498E-1,4.398501396E0,-3.564960957E0
8.117829119E0,-1.041311979E0,9.932740211E0,-5.738242149E0
8.127579327E0,-3.137370825E0,1.550293922E1,-5.484529018E0
8.137329639E0,-4.746513367E0,1.937073898E1,-1.819622397E0
8.147079848E0,-4.902226448E0,2.160049820E1,3.020249844E0
8.156830160E0,-3.205421686E0,2.363202286E1,7.621333122E0
8.166580369E0,-1.052147388E0,2.505816460E1,1.076278114E1
8.176330681E0,7.675516605E-1,2.542357635E1,1.104169655E1
8.186080889E0,1.964417100E0,2.384727097E1,9.105089188E0
8.195831098E0,2.048043966E0,2.105808830E1,5.112709045E0
8.205581410E0,1.501895308E0,1.780906296E1,1.070884466E-1
8.215331619E0,8.659625053E-1,1.431486893E1,-4.550835609E0
8.225081931E0,4.231433272E-1,1.099586582E1,-5.915159702E0
8.234832139E0,-3.811696768E-1,7.959350586E0,-3.889917135E0
8.244582452E0,-2.029166222E0,4.915498734E0,-3.619772196E-1
8.254332660E0,-3.993154526E0,1.327193260E0,1.758010626E0
8.264082973E0,-4.191091061E0,-2.015886307E0,3.791329861E0
8.273833181E0,-2.777446032E0,-4.325668335E0,4.573958397E0
8.283583389E0,-5.278207660E-1,-6.006933689E0,3.972186327E0
8.293333702E0,1.429595947E0,-7.601383209E0,2.118573427E0
8.303083910E0,2.319839716E0,-9.329071045E0,2.986782789E-1
8.312834223E0,2.355476141E0,-1.064720440E1,-1.416055799E0
8.322584431E0,2.784805298E0,-1.099912071E1,-2.950313091E0
8.332334744E0,3.367722511E0,-1.019993401E1,-4.377472401E0
8.342084952E0,2.935360193E0,-9.371951103E0,-4.885750771E0
8.351835264E0,2.142317533E0,-9.382509232E0,-4.664113998E0
8.361585473E0,1.049102545E0,-9.694281578E0,-4.799694061E0
8.371335785E0,-3.949241042E-1,-9.939198494E0,-4.572080612E0
8.381085994E0,-1.373168826E0,-9.861861229E0,-4.756447792E0
8.390836202E0,-1.552598238E0,-9.535330772E0,-4.393545151E0
8.400586514E0,-9.888850451E-1,-9.110777855E0,-2.849982023E0
8.410336723E0,-3.570496738E-1,-9.175213814E0,-1.458813906E0
8.420087035E0,3.790967464E-1,-9.546566963E0,-2.679706812E-1
8.429837244E0,1.104466796E0,-9.631464958E0,6.708474159E-1
8.439587556E0,1.594929695E0,-9.544627190E0,9.649045467E-1
8.449337764E0,1.627580881E0,-9.354677200E0,7.544128895E-1
8.459087973E0,1.361359715E0,-8.978549004E0,1.028578162E0
8.468838285E0,7.541415095E-1,-8.730476379E0,1.915456891E0
8.478588494E0,-8.094990253E-2,-8.700900078E0,2.175634384E0
8.488338806E0,-1.078476071E0,-8.276828766E0,1.161811352E0
8.498089014E0,-1.645612717E0,-7.753441811E0,2.192234993E-2
8.507839327E0,-1.821042895E0,-7.413912773E0,-8.871152401E-1
8.517589535E0,-1.547802806E0,-6.673235893E0,-1.058838725E0
8.527339744E0,-5.007025003E-1,-4.954120159E0,-6.896723509E-1
8.537090056E0,1.017162323E0,-2.159771919E0,-2.874588966E-2
8.546840264E0,1.765585065E0,1.623602867E0,4.819688797E-1
8.556590577E0,1.911142468E-1,6.472426414E0,4.731429815E-1
8.566340785E0,-3.111524582E0,1.186945820E1,-1.699162722E-1
8.576091098E0,-4.822040081E0,1.527619934E1,-1.551412702E0
8.585841306E0,-4.219298363E0,1.668821335E1,-1.804365754E0
8.595591514E0,-3.334990263E0,1.857681274E1,-5.117512941E-1
8.605341827E0,-7.205610275E-1,2.092256546E1,2.110723257E0
8.615092035E0,2.009669065E0,2.217065048E1,4.446407318E0
8.624842348E0,2.548848867E0,2.243616486E1,5.675863266E0
8.634592556E0,1.205808282E0,2.190003014E1,3.299400806E0
8.644342869E0,4.831841588E-1,2.010307503E1,-2.398121357E-1
8.654093077E0,1.347645819E-1,1.768747711E1,-2.074752808E0
8.663843285E0,3.252047896E-1,1.512497330E1,-1.941550255E0
8.673593494E0,6.633125544E-1,1.231026840E1,-9.083907604E-1
8.683343806E0,-1.146766841E-1,9.031588554E0,8.484362364E-1
8.693094014E0,-1.953453302E0,4.876086235E0,3.915061712E0
8.702844327E0,-2.285770893E0,1.409114838E0,5.242236614E0
8.712594535E0,-9.618369341E-1,-1.310962677E0,6.302509308E0
8.722344848E0,1.183370113E0,-3.334194183E0,6.806375504E0
8.732095056E0,2.343320608E0,-5.223787308E0,5.904780865E0
8.741845369E0,2.035062075E0,-7.334333420E0,3.978621483E0
8.751595577E0,1.703675508E0,-9.472666740E0,1.566947818E0
8.761345889E0,1.697619319E0,-1.089928341E1,-1.175109863E0
8.771096098E0,1.660961270E0,-1.185082817E1,-3.739607096E0
8.780846306E0,2.192865849E0,-1.240873909E1,-6.124583721E0
8.790596514E0,2.273926497E0,-1.283047867E1,-7.320369244E0
8.800346827E0,1.546028018E0,-1.292567825E1,-7.647430420E0
8.810097139E0,3.047575355E-1,-1.226923656E1,-6.393337250E0
8.819847348E0,-8.467285037E-1,-1.130332184E1,-4.097655773E0
8.829597556E0,-1.263559341E0,-1.057311440E1,-2.465083122E0
8.839347869E0,-1.265747309E0,-1.029802132E1,-8.289132118E-1
8.849098077E0,-9.031554461E-1,-9.854268074E0,1.134444475E-1
8.858848389E0,-3.600245714E-1,-9.626511574E0,5.491949320E-1
8.868598598E0,1.784338355E-1,-9.332354546E0,6.388552189E-1
8.878348806E0,7.974436879E-1,-9.000730515E0,6.977705956E-1
8.888099119E0,1.412125587E0,-8.885093689E0,6.581025124E-1
8.897849327E0,1.502819180E0,-9.235379219E0,5.158306360E-1
8.907599639E0,1.254878759E0,-9.548439980E0,6.547117233E-2
8.917349848E0,8.164789677E-1,-9.350533485E0,-3.943065405E-1
8.927100056E0,4.270448089E-1,-8.803859711E0,-6.342229843E-1
8.936850369E0,1.941355765E-1,-8.634593964E0,-5.545383692E-1
8.946600577E0,2.803644836E-1,-8.508874893E0,-6.137853861E-1
8.956350889E0,1.105050147E-1,-7.748460770E0,-5.497757196E-1
8.966101098E0,5.104741454E-1,-6.598537445E0,1.649770737E-1
8.975851306E0,6.716437340E-1,-5.190107346E0,1.345882654E0
8.985601619E0,1.516481638E-1,-3.169777870E0,2.242318392E0
8.995351827E0,-1.007584810E0,-7.677078247E-3,1.370524406E0
9.005102035E0,-2.306397200E0,4.657008171E0,-1.182037234E0
9.014852348E0,-3.173130512E0,9.442564964E0,-4.153120041E0
9.024602556E0,-3.073159933E0,1.278166771E1,-4.670081615E0
9.034352869E0,-2.058302402E0,1.499696541E1,-1.683578253E0
9.044103077E0,2.344194949E-1,1.711789322E1,2.914773703E0
9.053853285E0,2.242948055E0,1.960926437E1,7.400637627E0
9.063603598E0,2.390616894E0,2.162400818E1,8.579291344E0
9.073353806E0,1.762212634E0,2.262240601E1,7.298599243E0
9.083104119E0,1.195848227E0,2.267891693E1,3.862053394E0
9.092854327E0,-3.663969040E-2,2.155857849E1,-1.433925629E-1
9.102604535E0,-1.478309870E0,1.960536957E1,-2.325514793E0
9.112354848E0,-2.293363810E0,1.723976326E1,-2.586692810E0
9.122105056E0,-1.234953523E0,1.521497822E1,-2.397424936E0
9.131855369E0,2.030638158E-1,1.290138531E1,-1.442888618E0
9.141605577E0,6.958459616E-1,9.675994873E0,-4.315448999E-1
9.151355785E0,7.493506670E-1,6.302360535E0,-3.755197525E-1
9.161106098E0,-2.317058444E-1,3.040442467E0,1.842475176E0
9.170856306E0,-9.660255313E-1,-2.256298065E-1,5.356237411E0
9.180606619E0,-6.030001640E-1,-2.488772392E0,7.642987251E0
9.190356827E0,5.623817444E-3,-3.667954922E0,7.761561394E0
9.200107035E0,3.531457186E-1,-4.933100700E0,5.793946266E0
9.209857348E0,9.766675234E-1,-6.396107197E0,3.380647182E0
9.219607556E0,1.601845026E0,-8.016357422E0,9.503450394E-1
9.229357764E0,1.454202414E0,-9.568296432E0,-1.185693502E0
9.239108077E0,7.542340755E-1,-1.082855415E1,-3.157099247E0
9.248858285E0,4.179239869E-1,-1.171550941E1,-4.181841850E0
9.258608494E0,2.787011862E-1,-1.247202873E1,-4.989219666E0
9.268358806E0,3.843328357E-2,-1.276238918E1,-5.672713757E0
9.278109014E0,-6.819810271E-1,-1.232298088E1,-5.172947884E0
9.287859327E0,-1.106408238E0,-1.141752243E1,-4.543313026E0
9.297609535E0,-1.142834902E0,-1.077915192E1,-4.259072781E0
9.307359744E0,-3.908618689E-1,-1.013565445E1,-2.489439726E0
9.317110056E0,5.347434878E-1,-9.599882126E0,-3.425482512E-1
9.326860264E0,1.551145792E0,-9.478016853E0,4.134737253E-1
9.336610473E0,2.523662567E0,-9.596205711E0,1.097332239E0
9.346360785E0,3.116902351E0,-9.925840378E0,2.001717329E0
9.356110994E0,2.672675133E0,-1.021169472E1,2.580564022E0
9.365861202E0,1.431236267E0,-1.038971710E1,2.568311691E0
9.375611514E0,-7.497081161E-2,-1.038256454E1,1.898678184E0
9.385361723E0,-1.757371426E0,-9.849332809E0,1.196377277E-1
9.395112035E0,-3.018456221E0,-9.276208878E0,-2.144905329E0
9.404862244E0,-3.393504143E0,-8.581200600E0,-3.809318066E0
9.414612452E0,-2.493189812E0,-7.398237705E0,-3.660550833E0
9.424362764E0,-1.255175114E0,-5.965007782E0,-2.381610870E0
9.434112973E0,3.040346503E-1,-4.045859337E0,-7.716376185E-1
9.443863181E0,1.416241050E0,-1.507522583E0,2.934788465E-1
9.453613494E0,1.062350273E0,2.076133728E0,-1.818318367E-1
9.463363702E0,-2.957394719E-1,6.608572960E0,-1.249314904E0
9.473113910E0,-1.151529551E0,1.145580673E1,-1.244801402E0
9.482864223E0,-1.181025147E0,1.595034218E1,-1.131072283E0
9.492614431E0,1.746865064E-1,1.966479111E1,-1.071832299E0
9.502364639E0,1.542424440E0,2.142510605E1,1.095213294E0
9.512114952E0,2.419256687E0,2.242208099E1,4.129035950E0
9.521865160E0,3.043529987E0,2.281891251E1,5.609156609E0
9.531615473E0,3.579005480E0,2.254446220E1,4.843846321E0
9.541365681E0,4.309475422E0,2.165925407E1,2.494157791E0
9.551115889E0,5.221514702E0,2.062936020E1,1.612611413E-1
9.560866202E0,5.042528152E0,1.861011887E1,-2.107340336E0
9.570616410E0,3.646455526E0,1.538571930E1,-3.761358500E0
9.580366619E0,2.328432083E0,1.219092560E1,-4.187733173E0
9.590116931E0,4.087286890E-1,8.805263519E0,-2.595574379E0
9.599867139E0,-2.338616133E0,5.705636978E0,6.858742237E-1
9.609617348E0,-4.359021187E0,3.028439522E0,3.209941626E0
9.619367660E0,-4.096488476E0,5.225028992E-1,4.388310909E0
9.629117869E0,-2.295622826E0,-1.562048912E0,5.806210041E0
9.638868077E0,-3.792205155E-1,-3.894688606E0,6.163999557E0
9.648618285E0,3.827059865E-1,-6.686606407E0,4.581403732E0
9.658368598E0,8.787702322E-1,-8.825604439E0,2.563585997E0
9.668118806E0,1.181140661E0,-1.004623699E1,1.037132144E0
9.677869119E0,1.221024990E0,-1.099028492E1,-1.036775351E0
9.687619327E0,9.230304956E-1,-1.175130844E1,-3.424407005E0
9.697369535E0,-9.452825785E-2,-1.239497948E1,-4.870964527E0
9.707119744E0,-9.747985005E-1,-1.274580002E1,-5.664868832E0
9.716870056E0,-8.713183403E-1,-1.274004364E1,-5.860275269E0
9.726620264E0,-8.550316095E-2,-1.235905933E1,-5.053438663E0
9.736370473E0,5.684176683E-1,-1.183041573E1,-3.039322376E0
9.746120785E0,1.313781261E0,-1.125439644E1,-1.719005942E0
9.755870994E0,1.634474516E0,-1.109889603E1,-1.061702967E0
9.765621202E0,1.802045226E0,-1.096252823E1,-4.774385691E-2
9.775371514E0,1.846791863E0,-1.071967793E1,5.937765837E-1
9.785121723E0,1.970131159E0,-1.058092213E1,7.343908548E-1
9.794871931E0,1.955394745E0,-1.037617111E1,8.570055366E-1
9.804622139E0,1.499030113E0,-9.790053368E0,8.594508767E-1
9.814372452E0,8.604145050E-1,-8.787237167E0,4.384004474E-1
9.824122660E0,-8.530476689E-2,-8.012948036E0,3.889713287E-1
9.833872973E0,-1.043177366E0,-7.667343140E0,4.763290286E-1
9.843623181E0,-1.570465803E0,-7.227327347E0,6.358873844E-1
9.853373389E0,-1.493698359E0,-6.748710632E0,7.299129963E-1
9.863123702E0,-1.159199238E0,-6.370916843E0,1.328050971E0
9.872873910E0,-4.658082426E-1,-5.730754852E0,1.283187747E0
9.882624119E0,4.178453088E-1,-3.997893333E0,1.471791863E0
9.892374431E0,1.060456753E0,-1.345205307E0,2.301296711E0
9.902124535E0,9.776899815E-1,1.714166641E0,2.301421642E0
9.911874848E0,-4.008310139E-1,5.379348755E0,2.373437881E-1
9.921625056E0,-2.738049984E0,8.560704231E0,-3.029997826E0
9.931375369E0,-4.059144974E0,1.081593704E1,-4.492633820E0
9.941125577E0,-2.262006760E0,1.312035084E1,-2.944243193E0
9.950875785E0,7.581615448E-1,1.552237797E1,1.926140785E-1
9.960626098E0,3.057351112E0,1.745419312E1,3.844164610E0
9.970376306E0,4.697576046E0,1.854387665E1,5.995659351E0
9.980126514E0,4.503609180E0,1.952222443E1,5.347848415E0
9.989876827E0,3.073291063E0,2.030956841E1,2.976951122E0
9.999627035E0,1.224312782E0,2.037841988E1,4.347229004E-2
1.000937724E1,-9.962325096E-1,1.946290970E1,-2.545670748E0
1.001912745E1,-2.631656170E0,1.781306458E1,-4.870382309E0
1.002887776E1,-3.573254108E0,1.531065464E1,-3.857604265E0
1.003862797E1,-3.845389366E0,1.239213467E1,-4.325405359E-1
1.004837818E1,-2.806999207E0,8.897662163E0,2.774023294E0
1.005812849E1,-1.382976055E0,5.431625366E0,4.893454552E0
1.006787870E1,-1.515240908E0,2.547880173E0,6.972207069E0
1.007762891E1,-1.461073756E0,-4.888725281E-2,6.719765663E0
1.008737912E1,-1.051958084E0,-2.584900856E0,5.292092323E0
1.009712943E1,-7.261226177E-1,-5.072302341E0,2.896443844E0
1.010687964E1,-5.898039341E-1,-7.983933449E0,6.720284224E-1
1.011662985E1,-8.962152004E-1,-1.031015968E1,-1.269305587E0
1.012638016E1,-1.412527919E0,-1.173606300E1,-3.606338501E0
1.013613037E1,-1.469560862E0,-1.228946781E1,-5.145739079E0
1.014588058E1,-1.306008697E0,-1.234895992E1,-6.079216957E0
1.015563079E1,-9.764766693E-1,-1.212117195E1,-6.398414612E0
1.016538110E1,-8.100368381E-1,-1.181284714E1,-5.671433926E0
1.017513131E1,-2.138155699E-2,-1.088502026E1,-4.143441200E0
1.018488151E1,1.151260614E0,-9.948028564E0,-2.583453655E0
1.019463183E1,2.098655224E0,-9.157935143E0,-8.193088770E-1
1.020438204E1,2.565508127E0,-8.663679123E0,9.876768589E-1
1.021413224E1,2.528655529E0,-8.324934006E0,2.364432812E0
1.022388245E1,2.235556602E0,-8.197280884E0,3.369940758E0
1.023363276E1,1.677573323E0,-8.158916473E0,3.674843788E0
1.024338297E1,7.866457701E-1,-8.367050171E0,3.346255779E0
1.025313318E1,1.768942028E-1,-8.634494781E0,2.598186970E0
1.026288339E1,-1.199874133E-1,-8.830988884E0,1.240612149E0
1.027263370E1,-1.649587750E-1,-8.819154739E0,-4.503906965E-1
1.028238381E1,1.313876510E-1,-8.883109093E0,-1.706066370E0
1.029213412E1,3.187237382E-1,-8.625975609E0,-2.781723022E0
1.030188433E1,5.174570084E-1,-8.157325745E0,-3.713927269E0
1.031163464E1,6.091035604E-1,-7.577631474E0,-3.968506813E0
1.032138485E1,4.586905837E-1,-6.902556419E0,-3.482915878E0
1.033113506E1,-8.183678985E-2,-5.931485653E0,-2.390676737E0
1.034088526E1,-3.525782526E-1,-4.387981415E0,-8.284223676E-1
1.035063558E1,-5.177562237E-1,-2.122907639E0,-1.012523055E0
1.036038578E1,-6.710875034E-1,6.156616211E-1,-2.354363918E0
1.037013599E1,-4.598785341E-1,3.771286964E0,-3.053902626E0
1.037988620E1,-4.265308380E-1,7.172863007E0,-2.861184597E0
1.038963651E1,-6.638141870E-1,1.087494469E1,-1.943040371E0
1.039938672E1,-1.114491582E0,1.392868233E1,5.780768394E-1
1.040913693E1,-1.281190157E0,1.615882111E1,2.670729637E0
1.041888714E1,-8.685179949E-1,1.762995529E1,4.092749596E0
1.042863745E1,8.708274364E-2,1.870954895E1,4.670671463E0
1.043838766E1,1.139254093E0,1.987152863E1,3.579163074E0
1.044813787E1,2.048232079E0,2.019135857E1,1.970390797E0
1.045788818E1,2.738631964E0,1.955240631E1,7.944253683E-1
1.046763839E1,3.085548162E0,1.797268295E1,-7.182502747E-2
1.047738860E1,3.015315771E0,1.618469429E1,-9.883245230E-1
1.048713881E1,2.599238157E0,1.388569355E1,-1.595732331E0
1.049688912E1,1.987836599E0,1.088527393E1,-5.500651002E-1
1.050663933E1,7.311903238E-1,8.269285202E0,1.826844931E0
1.051638954E1,-1.337020159E0,6.237565041E0,3.194970846E0
1.052613974E1,-3.213165998E0,3.888484955E0,3.406053543E0
1.053588995E1,-4.350158215E0,1.325443268E0,2.570664644E0
1.054564026E1,-4.447280407E0,-1.236318588E0,2.270353556E0
1.055539047E1,-3.619905233E0,-3.898708820E0,2.187355042E0
1.056514068E1,-2.123435497E0,-5.966691971E0,9.741187096E-1
1.057489089E1,-8.460559845E-1,-7.837970734E0,6.175434589E-2
1.058464120E1,1.447782964E-1,-9.414094925E0,-8.589221239E-1
1.059439141E1,9.950780869E-1,-1.023526573E1,-1.964130998E0
1.060414162E1,1.630542874E0,-1.027681160E1,-2.976627350E0
1.061389183E1,2.002067327E0,-1.004825592E1,-3.921080589E0
1.062364204E1,2.173245192E0,-9.893824577E0,-4.326141357E0
1.063339235E1,1.867609978E0,-9.969472885E0,-3.632106781E0
1.064314256E1,8.306352496E-1,-9.977990150E0,-2.930133820E0
1.065289276E1,-2.569806278E-1,-9.842691422E0,-1.689208746E0
1.066264297E1,-7.516471744E-1,-9.564640999E0,-8.474217653E-1
1.067239318E1,-7.240337133E-1,-9.206160545E0,-1.372253895E-2
1.068214339E1,-1.245379746E-1,-8.934193611E0,7.332386971E-1
1.069189370E1,7.233373523E-1,-8.674234390E0,8.989331722E-1
1.070164391E1,1.595435858E0,-8.418369293E0,2.930480242E-1
1.071139412E1,2.343735933E0,-8.247892380E0,3.220498562E-1
1.072114443E1,2.525694370E0,-7.885763168E0,4.165637493E-1
1.073089464E1,2.112448454E0,-7.381653786E0,-1.273293495E-1
1.074064485E1,1.318428040E0,-7.314718723E0,-1.123106718E0
1.075039506E1,3.893733025E-1,-7.093487263E0,-2.156896114E0
1.076014526E1,-4.439083636E-1,-6.807233810E0,-2.862595558E0
1.076989558E1,-7.521232367E-1,-6.740204811E0,-2.737138748E0
1.077964579E1,-3.088215590E-1,-6.509653568E0,-1.645992279E0
1.078939599E1,6.879299879E-1,-6.191298962E0,-4.020055532E-1
1.079914620E1,1.109089613E0,-5.431891441E0,3.570325375E-1
1.080889641E1,1.332669854E0,-3.733284950E0,-9.422397614E-2
1.081864672E1,1.203100801E0,-1.068479538E0,-1.457259059E0
1.082839693E1,5.943871140E-1,1.998730659E0,-3.366366863E0
1.083814714E1,2.903012037E-1,5.254354477E0,-5.363857746E0
1.084789735E1,2.642571926E-2,8.592208862E0,-4.113998890E0
1.085764756E1,-1.188319325E-1,1.156922245E1,-1.240234256E0
1.086739787E1,-3.755286336E-1,1.377571487E1,2.101680279E0
1.087714808E1,-1.164280176E0,1.520032310E1,4.578627586E0
1.088689829E1,-2.387409687E0,1.592584705E1,5.889495850E0
1.089664849E1,-2.840681791E0,1.687220764E1,4.933443069E0
1.090639870E1,-2.340470791E0,1.806552124E1,2.637205362E0
1.091614901E1,-1.435596824E0,1.863218498E1,9.749498367E-1
1.092589922E1,-9.578275681E-1,1.805373383E1,-2.592751980E-1
1.093564943E1,-1.062887236E-1,1.722430038E1,-7.469565868E-1
1.094539964E1,6.050643325E-1,1.603883362E1,-1.608492136E-1
1.095514985E1,1.136894822E0,1.395429707E1,1.461736560E0
1.096490016E1,1.309023261E0,1.118578148E1,3.816422462E0
1.097465037E1,7.835410833E-1,8.156341553E0,5.816183567E0
1.098440058E1,-6.482839584E-3,4.740188599E0,7.474702358E0
1.099415078E1,-1.401995122E-1,1.440268517E0,7.014575958E0
1.100390099E1,3.560054004E-1,-1.130182266E0,5.380847454E0
1.101365120E1,9.074250460E-1,-3.221144676E0,4.001173496E0
1.102340151E1,9.623551369E-1,-5.164881706E0,1.884971619E0
1.103315172E1,3.992494345E-1,-6.696063519E0,-1.407393932E0
1.104290193E1,-1.553884149E-2,-8.055934906E0,-3.637131453E0
1.105265214E1,-2.356532216E-2,-9.151749611E0,-4.616061211E0
1.106240235E1,1.332801431E-1,-9.776907921E0,-4.852667332E0
1.107215256E1,2.808624208E-1,-1.024409294E1,-4.599662781E0
1.108190287E1,9.926763177E-2,-1.073616982E1,-4.222928047E0
1.109165308E1,-2.598096728E-1,-1.112677383E1,-4.138439178E0
1.110140328E1,-4.023344815E-1,-1.102410126E1,-4.197299480E0
1.111115349E1,-4.092714190E-1,-1.071026802E1,-3.946131706E0
1.112090370E1,-2.580661476E-1,-1.034549522E1,-3.248550892E0
1.113065391E1,1.518720984E-1,-9.790941238E0,-2.646581888E0
1.114040422E1,4.682118893E-1,-9.324559212E0,-1.853429317E0
1.115015443E1,5.630334020E-1,-9.059782982E0,-8.155227900E-1
1.115990464E1,5.516198277E-1,-8.966041565E0,-1.512666941E-1
1.116965485E1,5.904707909E-1,-9.084853172E0,2.878273726E-1
1.117940506E1,7.527644634E-1,-8.967154503E0,7.561736107E-1
1.118915526E1,7.860525846E-1,-8.996732712E0,3.364317417E-1
1.119890558E1,7.672581077E-1,-9.005420685E0,-1.515983343E-1
1.120865579E1,7.017256021E-1,-8.770728111E0,-4.623881578E-1
1.121840599E1,4.570029676E-1,-8.397620201E0,-8.219275475E-1
1.122815620E1,2.121697813E-1,-7.537564278E0,-1.136853695E0
1.123790641E1,-2.757576704E-1,-6.588954926E0,-1.079334259E0
1.124765662E1,-6.388876438E-1,-5.401186943E0,-6.303800344E-1
1.125740683E1,-4.319550693E-1,-3.574435234E0,-8.124794960E-1
1.126715714E1,2.927178144E-1,-1.217034340E0,-1.363712072E0
1.127690735E1,9.099274874E-1,1.598859787E0,-1.213639259E0
1.128665756E1,1.126423120E0,4.460549355E0,-6.102446318E-1
1.129640776E1,8.106428385E-1,7.490315437E0,3.442417383E-1
1.130615797E1,-4.347223043E-1,1.075457001E1,1.236831903E0
1.131590818E1,-1.421539545E0,1.391068459E1,1.840582848E0
1.132565839E1,-1.834000826E0,1.600687027E1,3.297389269E0
1.133540870E1,-1.703401685E0,1.762228775E1,4.997964382E0
1.134515891E1,-8.163035512E-1,1.889949226E1,5.807352543E0
1.135490912E1,-1.546907276E-1,1.951565552E1,5.918042660E0
1.136465933E1,3.570325971E-1,1.976521301E1,4.803932667E0
1.137440954E1,1.000154495E0,1.931003571E1,2.913935184E0
1.138415974E1,1.358525395E0,1.822594452E1,1.374763727E0
1.139390995E1,1.536772490E0,1.660196877E1,5.539387465E-1
1.140366016E1,1.571669817E0,1.420839596E1,3.065987825E-1
1.141341047E1,1.428099871E0,1.148286247E1,3.388271332E-1
1.142316068E1,8.524105549E-1,8.580705643E0,8.502949476E-1
1.143291089E1,-1.369945407E-1,5.157270432E0,1.628437161E0
1.144266110E1,-1.209297895E0,1.542611122E0,1.855397820E0
1.145241131E1,-2.088012695E0,-1.314981461E0,1.154191852E0
1.146216151E1,-2.281220913E0,-3.296633720E0,1.690487862E-1
1.147191172E1,-1.732450008E0,-4.962248325E0,-3.779089451E-1
1.148166193E1,-1.239262342E0,-5.893687248E0,-1.429492235E-1
1.149141224E1,-1.143939257E0,-6.324469090E0,-2.094676495E-1
1.150116245E1,-1.319426179E0,-6.913832664E0,-7.720780373E-1
1.151091266E1,-1.082574964E0,-7.788913727E0,-1.669629574E0
1.152066287E1,-6.204974055E-1,-8.574014664E0,-2.429631948E0
1.153041308E1,-7.010555267E-2,-9.005519867E0,-3.141325474E0
1.154016328E1,5.601466298E-1,-9.174138069E0,-3.345089197E0
1.154991349E1,6.604272127E-1,-9.321964264E0,-2.856815100E0
1.155966370E1,7.229117751E-1,-9.703991890E0,-2.558922529E0
1.156941391E1,1.013131142E0,-9.823016167E0,-3.201162815E0
1.157916412E1,1.266023278E0,-9.513739586E0,-3.453879118E0
1.158891443E1,1.596516132E0,-9.197997093E0,-2.677304983E0
1.159866464E1,1.797528028E0,-9.156735420E0,-1.638720393E0
1.160841485E1,1.851499438E0,-9.087402344E0,-1.036373377E0
1.161816506E1,1.742933750E0,-9.179206848E0,-7.516347766E-1
1.162791526E1,1.498642325E0,-9.405811310E0,-4.167098999E-1
1.163766547E1,1.246971965E0,-9.565993309E0,-1.362335682E-1
1.164741568E1,9.979315996E-1,-9.662007332E0,6.482934952E-2
1.165716589E1,7.881556749E-1,-9.586231232E0,-6.100332737E-2
1.166691610E1,5.722215176E-1,-9.711174965E0,-3.163452148E-1
1.167666631E1,3.587733507E-1,-9.715829849E0,-6.666347980E-1
1.168641662E1,-1.820166409E-2,-9.701925278E0,-1.470441580E0
1.169616683E1,-4.117609262E-1,-9.049964905E0,-2.179572582E0
1.170591704E1,-6.692990065E-1,-8.014823914E0,-2.432470798E0
1.171566724E1,-8.390339613E-1,-7.141973495E0,-1.743877888E0
1.172541745E1,-7.929975986E-1,-6.032110214E0,-1.500491738E0
1.173516766E1,-2.674926221E-1,-4.294090271E0,-2.282901287E0
1.174491787E1,4.072216153E-1,-1.912019253E0,-2.084075928E0
1.175466808E1,8.919991255E-1,1.741893768E0,-1.707293749E0
1.176441829E1,8.089695871E-2,6.268563271E0,-2.757238865E0
1.177416849E1,-2.269972324E0,1.077375603E1,-3.131684780E0
1.178391870E1,-4.200812817E0,1.429944420E1,-1.767926574E0
1.179366901E1,-3.820412159E0,1.656372452E1,-6.746388674E-1
1.180341922E1,-1.853312016E0,1.866525650E1,1.203705907E0
1.181316943E1,3.111348152E-1,2.026019669E1,3.968831062E0
1.182291964E1,3.223171711E0,2.220109940E1,6.359961033E0
1.183266985E1,5.476793289E0,2.332521629E1,6.545727730E0
1.184242006E1,5.919542313E0,2.285528564E1,4.957133770E0
1.185217026E1,5.316992283E0,2.157571220E1,3.371390104E0
1.186192047E1,4.148720264E0,1.917444611E1,1.972271681E0
1.187167068E1,2.338506699E0,1.547331238E1,5.236794949E-1
1.188142089E1,7.056569457E-1,1.191359425E1,3.234698772E-1
1.189117110E1,-7.183345556E-1,8.552004814E0,1.621234655E0
1.190092131E1,-2.439769745E0,4.978547096E0,3.739729166E0
1.191067151E1,-3.631075859E0,1.459594727E0,5.892014980E0
1.192042172E1,-3.765918970E0,-1.218637466E0,6.157142639E0
1.193017193E1,-3.484185219E0,-3.235045433E0,5.891618252E0
1.193992224E1,-3.115724325E0,-5.149012089E0,5.174352646E0
1.194967245E1,-1.977078199E0,-6.622524261E0,2.835259438E0
1.195942266E1,-2.179593444E-1,-7.234051704E0,-9.575072527E-1
1.196917276E1,4.065299034E-1,-8.274776459E0,-3.755562544E0
1.197892308E1,6.476037502E-1,-9.408498764E0,-5.435599327E0
1.198867328E1,1.478825212E-1,-1.031225109E1,-6.537667274E0
1.199842349E1,-6.513841748E-1,-1.090583992E1,-6.406266689E0
1.200817370E1,-1.354530931E0,-1.109035110E1,-4.749955177E0
1.201792391E1,-1.070808887E0,-1.073119068E1,-2.366975307E0
1.202767412E1,6.223535538E-2,-1.016071033E1,-8.445534706E-1
1.203742433E1,1.132340908E0,-9.647707939E0,8.026514053E-1
1.204717454E1,2.547073126E0,-8.855189323E0,1.757551908E0
1.205692474E1,3.157927752E0,-8.640914917E0,8.764574528E-1
1.206667495E1,3.211910963E0,-8.784276962E0,5.635505915E-1
1.207642516E1,3.317514181E0,-8.734712601E0,4.856359959E-1
1.208617537E1,2.809664488E0,-8.745051384E0,-4.670379162E-1
1.209592558E1,1.855534554E0,-8.861434937E0,-1.869296908E0
1.210567578E1,5.911611319E-1,-9.181140900E0,-2.747226477E0
1.211542599E1,-5.356597900E-1,-9.179666519E0,-2.813498497E0
1.212517620E1,-5.832527876E-1,-8.846776009E0,-2.347350359E0
1.213492641E1,-4.102634788E-1,-8.417074203E0,-2.150307894E0
1.214467672E1,-1.422005892E-2,-7.804022789E0,-2.220343590E0
1.215442693E1,6.516725421E-1,-6.886606216E0,-1.814963579E0
1.216417714E1,1.352974176E0,-5.668510914E0,-8.025122285E-1
1.217392735E1,1.400489807E0,-4.445802689E0,3.177527189E-1
1.218367756E1,2.802727818E-1,-2.606613159E0,5.172252655E-1
1.219342776E1,-1.402045965E0,5.285234451E-1,-1.256131887E0
1.220317797E1,-3.732558489E0,4.045208931E0,-2.826155663E0
1.221292818E1,-4.539418697E0,6.853568077E0,-3.318114758E0
1.222267839E1,-3.840994835E0,8.862936020E0,-3.153280258E0
1.223242860E1,-2.218863249E0,1.165380764E1,-1.251085997E0
1.224217881E1,-3.532758653E-1,1.509327793E1,2.021884441E0
1.225192901E1,8.692111969E-1,1.761476135E1,4.042900562E0
1.226167922E1,1.242367268E0,1.847530365E1,4.700606823E0
1.227142943E1,1.202436566E0,1.906112289E1,4.776268959E0
1.228117964E1,1.667901993E0,1.922761154E1,3.973056078E0
1.229092985E1,2.244877338E0,1.829086685E1,3.686254978E0
1.230067995E1,2.552559376E0,1.677557182E1,3.025518417E0
1.231043026E1,2.588418961E0,1.456669617E1,1.479142308E0
1.232018047E1,2.562993050E0,1.217855453E1,-2.344225645E-1
1.232993068E1,1.724548936E0,9.695594788E0,-1.370470047E0
1.233968089E1,1.144616753E-1,7.744629860E0,-1.964105725E0
1.234943110E1,-1.584211946E0,6.125534058E0,-1.539072514E0
1.235918131E1,-3.116990328E0,4.088885307E0,-4.396287203E-1
1.236893151E1,-3.844781637E0,1.883238792E0,7.549424171E-1
1.237868172E1,-3.147037506E0,9.215927124E-2,1.898359537E0
1.238843193E1,-1.443379283E0,-1.154800415E0,2.710470676E0
1.239818214E1,1.180254817E-1,-2.825979233E0,3.442591190E0
1.240793235E1,1.259011865E0,-4.728983402E0,3.408504486E0
1.241768256E1,2.034674406E0,-6.706762314E0,2.351439476E0
1.242743276E1,2.611155748E0,-8.056607246E0,3.894983530E-1
1.243718297E1,2.614063740E0,-9.217726707E0,-1.969586015E0
1.244693318E1,2.270031929E0,-9.903613091E0,-4.033269882E0
1.245668339E1,1.861397505E0,-1.045824623E1,-5.016593933E0
1.246643360E1,1.153918147E0,-1.068896294E1,-5.163784027E0
1.247618381E1,2.029031962E-1,-1.056867599E1,-4.938269138E0
1.248593401E1,-4.550664723E-1,-1.038539219E1,-4.305035591E0
1.249568422E1,-9.048124552E-1,-1.029039955E1,-3.236200809E0
1.250543443E1,-1.000626802E0,-1.020037651E1,-1.806112528E0
1.251518464E1,-6.196708679E-1,-9.897893906E0,-8.433413506E-2
1.252493485E1,-1.000662744E-1,-9.371285439E0,2.056509972E0
1.253468506E1,5.544146895E-1,-9.113104820E0,3.428825855E0
1.254443526E1,1.212162614E0,-9.381635666E0,3.169342279E0
1.255418547E1,1.460605860E0,-9.620965958E0,1.678330898E0
1.256393568E1,1.356343627E0,-9.472095490E0,3.259015083E-2
1.257368589E1,9.086516500E-1,-9.048569679E0,-1.212097049E0
1.258343610E1,3.813890219E-1,-8.601903915E0,-1.634759545E0
1.259318631E1,-1.692350209E-2,-8.197513580E0,-1.809571028E0
1.260293651E1,-3.273925781E-1,-7.950752258E0,-1.812031031E0
1.261268672E1,-5.214295387E-1,-7.680671215E0,-1.555110931E0
1.262243693E1,-7.512667179E-1,-7.233259201E0,-5.705498457E-1
1.263218714E1,-5.710073113E-1,-6.201407433E0,4.144911766E-1
1.264193735E1,-7.530730218E-2,-4.620569229E0,8.109356165E-1
1.265168745E1,2.914413214E-1,-2.358144760E0,8.938026428E-2
1.266143776E1,1.393905580E-1,7.008132935E-1,-1.760537148E0
1.267118797E1,-2.569030821E-1,4.800849915E0,-3.906367302E0
1.268093818E1,-1.066780835E-1,8.753891945E0,-5.418669224E0
1.269068839E1,7.325649858E-1,1.194498825E1,-4.381685257E0
1.270043860E1,1.296327829E0,1.514764977E1,-1.155392647E0
1.271018881E1,1.420172691E0,1.746611404E1,2.573297977E0
1.271993901E1,9.926156998E-1,1.857208824E1,6.465470314E0
1.272968922E1,3.533133268E-1,1.972459221E1,8.868235588E0
1.273943943E1,4.777023196E-2,2.067014313E1,7.887342453E0
1.274918964E1,1.572288424E-1,2.017930984E1,5.202300549E0
1.275893985E1,4.652629495E-1,1.940163040E1,2.712522030E0
1.276869006E1,6.365014911E-1,1.776241302E1,7.138395309E-1
1.277844026E1,9.329364300E-1,1.504816628E1,-3.817540407E-1
1.278819047E1,1.402861118E0,1.189456940E1,-6.247639656E-1
1.279794068E1,1.706824303E0,8.439521790E0,-7.236664295E-1
1.280769078E1,1.352096915E0,4.782639503E0,-6.167696714E-1
1.281744099E1,4.909350872E-1,1.304266930E0,5.261909962E-1
1.282719120E1,-4.518091977E-1,-1.526650429E0,2.156105757E0
1.283694141E1,-6.611709595E-1,-3.387677193E0,3.339696169E0
1.284669162E1,-7.891133428E-2,-4.756773949E0,3.840850830E0
1.285644183E1,3.179909885E-1,-6.241529465E0,3.510865688E0
1.286619204E1,6.074420810E-1,-7.179450512E0,2.274983406E0
1.287594224E1,5.485571027E-1,-7.688815117E0,1.062724590E-1
1.288569245E1,-3.391407132E-1,-8.123334885E0,-2.346443653E0
1.289544266E1,-1.263346195E0,-8.640085220E0,-4.290435791E0
1.290519287E1,-1.712916613E0,-9.198297501E0,-5.748901367E0
1.291494308E1,-1.682298422E0,-9.622960091E0,-6.890995502E0
1.292469328E1,-1.129808664E0,-9.811701775E0,-7.089962959E0
1.293444349E1,-6.712656021E-1,-9.819353104E0,-5.963593960E0
1.294419370E1,-3.059997857E-1,-9.570144653E0,-4.380378246E0
1.295394391E1,5.543196797E-1,-8.945043564E0,-2.836042166E0
1.296369412E1,1.379362226E0,-8.097526550E0,-1.290588140E0
1.297344433E1,1.571574092E0,-7.774156570E0,-1.043546200E-1
1.298319454E1,1.143159151E0,-7.826961040E0,1.870846748E-1
1.299294474E1,4.209521711E-1,-8.040090561E0,2.258036137E-1
1.300269485E1,-3.278725445E-1,-8.396270752E0,-1.742646694E-1
1.301244506E1,-8.698905706E-1,-8.906289101E0,-5.952448845E-1
1.302219526E1,-8.366149068E-1,-8.944594383E0,-6.114256382E-1
1.303194547E1,-6.453946829E-1,-8.477688789E0,-1.196276665E0
1.304169568E1,-6.340104938E-1,-8.137726784E0,-1.928989649E0
1.305144589E1,-3.176954687E-1,-7.733945847E0,-1.640130520E0
1.306119610E1,4.255280793E-1,-6.791747093E0,-6.973922253E-1
1.307094631E1,1.274426222E0,-5.472968102E0,5.679450035E-1
1.308069651E1,1.157714009E0,-4.191427231E0,1.372939229E0
1.309044672E1,5.538375378E-1,-2.419672489E0,8.517221212E-1
1.310019693E1,5.671523511E-2,-3.577089310E-1,-1.153108358E0
1.310994714E1,-1.768951714E-1,1.843791008E0,-3.485120296E0
1.311969735E1,-6.242501140E-1,4.891826630E0,-4.439362526E0
1.312944756E1,-1.209451199E0,8.078755379E0,-4.097899914E0
1.313919776E1,-1.465708613E0,1.092789745E1,-2.454543114E0
1.314894787E1,-7.468898296E-1,1.308490562E1,4.018919468E-1
1.315869808E1,4.260236621E-1,1.505440712E1,3.951318741E0
1.316844828E1,1.214330435E0,1.705952072E1,6.210576057E0
1.317819849E1,2.117671967E0,1.822774506E1,6.775216579E0
1.318794870E1,2.745743513E0,1.844854355E1,6.155195713E0
1.319769891E1,3.220086813E0,1.816554642E1,4.935186863E0
1.320744912E1,3.347007275E0,1.732670975E1,3.759272575E0
1.321719933E1,2.938970804E0,1.553586483E1,2.529714108E0
1.322694954E1,2.016394615E0,1.264535999E1,1.470660567E0
1.323669974E1,2.581117749E-1,9.476376534E0,6.721467972E-1
1.324644995E1,-1.647436619E0,6.611466408E0,2.279722691E-1
1.325620016E1,-2.689919233E0,3.976483345E0,-5.249952078E-1
1.326595026E1,-2.932657480E0,1.313944817E0,-1.719429612E0
1.327570047E1,-2.919824600E0,-9.893178940E-1,-2.207017899E0
1.328545068E1,-2.806832314E0,-2.936097145E0,-1.356726170E0
1.329520089E1,-2.637562513E0,-4.944127083E0,-5.204093456E-2
1.330495110E1,-2.005788088E0,-6.296071529E0,1.379982591E0
1.331470131E1,-9.006851912E-1,-6.654157162E0,2.937245369E0
1.332445151E1,2.683815956E-1,-6.547762394E0,3.488253593E0
1.333420172E1,1.340117693E0,-6.553118706E0,2.663989544E0
1.334395193E1,2.053286314E0,-7.071473122E0,1.746144533E0
1.335370214E1,2.358130693E0,-7.993801594E0,8.530097008E-1
1.336345224E1,2.544385195E0,-8.696642876E0,5.079312325E-1
1.337320245E1,2.623592377E0,-8.852803230E0,5.870106220E-1
1.338295266E1,2.285824299E0,-8.681167603E0,-2.289401293E-1
1.339270287E1,1.901680708E0,-8.689825058E0,-1.261260271E0
1.340245308E1,1.557910800E0,-8.557807922E0,-2.059250593E0
1.341220328E1,1.261319280E0,-8.168125153E0,-2.631903648E0
1.342195349E1,1.052607894E0,-7.483605385E0,-2.812325954E0
1.343170370E1,6.634842753E-1,-6.892797470E0,-2.606615543E0
1.344145391E1,2.683570683E-1,-6.897848606E0,-2.012068748E0
1.345120412E1,1.075986922E-1,-7.194406509E0,-1.530651569E0
1.346095422E1,2.985155582E-1,-7.332716465E0,-1.730706334E0
1.347070443E1,4.165617228E-1,-7.552743912E0,-1.529045224E0
1.348045464E1,6.067176461E-1,-7.609919548E0,-1.164370418E0
1.349020485E1,9.536842108E-1,-7.483648300E0,-9.510888457E-1
1.349995506E1,1.366137862E0,-6.974995136E0,-1.202479959E0
1.350970526E1,1.654578447E0,-5.811579704E0,-1.594146609E0
1.351945547E1,1.868394613E0,-4.331316948E0,-1.785721421E0
1.352920568E1,1.854906797E0,-2.962013245E0,-2.313504934E0
1.353895589E1,1.689918160E0,-1.390676975E0,-3.334235907E0
1.354870599E1,9.610929489E-1,1.167678833E-2,-3.637826443E0
1.355845620E1,-4.405423701E-1,1.082600594E0,-3.136623859E0
1.356820641E1,-1.992342472E0,2.112090111E0,-2.401122570E0
1.357795662E1,-2.935519457E0,3.940155983E0,-2.257182121E0
1.358770683E1,-2.727110863E0,6.487804413E0,-2.424052238E0
1.359745704E1,-1.119320869E0,9.118666649E0,-2.419979095E0
1.360720724E1,9.447156191E-1,1.176838493E1,-1.601596475E0
1.361695735E1,2.412648439E0,1.350594330E1,-1.137996912E-1
1.362670756E1,2.460885048E0,1.440004635E1,1.840502501E0
1.363645776E1,1.766927719E0,1.531675339E1,3.444876194E0
1.364620797E1,4.863134027E-1,1.566411591E1,4.756458282E0
1.365595818E1,-1.247876644E0,1.449159431E1,6.590084076E0
1.366570839E1,-2.432757854E0,1.376302624E1,6.030292511E0
1.367545860E1,-3.108179808E0,1.289520931E1,3.769398689E0
1.368520881E1,-3.376140594E0,1.113181496E1,1.951302767E0
1.369495901E1,-3.479187012E0,9.492116928E0,9.248620272E-1
1.370470912E1,-3.256306648E0,7.717187881E0,1.323201060E0
1.371445933E1,-2.467592239E0,5.719481468E0,3.026966095E0
1.372420954E1,-1.708849907E0,3.957501411E0,5.365403652E0
1.373395974E1,-9.557537436E-1,2.128471375E0,7.997652054E0
1.374370995E1,-2.846727967E-1,3.860893250E-1,8.786026001E0
1.375346016E1,2.256157398E-1,-6.707973480E-1,7.007345676E0
1.376321037E1,3.635568321E-1,-1.464647293E0,4.600248337E0
1.377296047E1,-2.440031767E-1,-2.537680626E0,2.107625246E0
1.378271068E1,-5.754917860E-1,-4.378414154E0,-1.036962986E0
1.379246089E1,-4.482836127E-1,-6.433515549E0,-4.168848515E0
1.380221110E1,1.850134134E-2,-7.843334675E0,-6.422859192E0
1.381196131E1,5.701106787E-1,-8.694417000E0,-7.457611084E0
1.382171151E1,9.451175332E-1,-9.370182991E0,-7.363847733E0
1.383146162E1,1.544324756E0,-9.818901062E0,-6.791432858E0
1.384121183E1,2.029423237E0,-9.805706978E0,-5.894479752E0
1.385096204E1,2.260905266E0,-9.287149429E0,-3.951540470E0
1.386071224E1,1.989661217E0,-9.027012825E0,-1.811702847E0
1.387046235E1,1.427165508E0,-9.241782188E0,-5.024758577E-1
1.388021266E1,9.096370935E-1,-9.553851128E0,1.792100668E-1
1.388996287E1,5.823522210E-1,-9.666079521E0,1.235823631E-1
1.389971297E1,4.277734160E-1,-9.728283882E0,2.222467661E-1
1.390946318E1,4.642956853E-1,-9.588471413E0,2.233183384E-2
1.391921339E1,5.715168715E-1,-9.267094612E0,-3.300734758E-1
1.392896360E1,7.551127076E-1,-9.162329674E0,-5.884572268E-1
1.393871381E1,8.802980185E-1,-9.106350899E0,-7.210289240E-1
1.394846401E1,6.578905582E-1,-8.717290878E0,-6.800454855E-1
1.395821412E1,4.927501380E-1,-7.915853500E0,-8.039998412E-1
1.396796433E1,4.717009068E-1,-7.033662796E0,-7.264857888E-1
1.397771454E1,5.710618496E-1,-6.123144627E0,-8.116688728E-1
1.398746474E1,8.112376332E-1,-4.944416046E0,-1.118862391E0
1.399721495E1,5.394501686E-1,-3.535265923E0,-1.752981782E0
1.400696516E1,-2.205304801E-1,-1.678872108E0,-2.774479628E0
1.401671526E1,-1.519815087E0,6.803541183E-1,-3.414545298E0
1.402646547E1,-3.173511505E0,3.588734627E0,-3.753302574E0
1.403621568E1,-3.975576878E0,6.892206192E0,-2.772228718E0
1.404596589E1,-3.314062357E0,1.045574951E1,-5.258843899E-1
1.405571610E1,-9.299060702E-1,1.468547440E1,2.137840033E0
1.406546631E1,1.996322393E0,1.900316238E1,5.199508667E0
1.407521641E1,4.114129543E0,2.228388786E1,7.343135834E0
1.408496662E1,5.126705647E0,2.366200447E1,7.550120831E0
1.409471683E1,4.243838310E0,2.279399109E1,5.865963936E0
1.410446704E1,2.430388212E0,2.108965302E1,2.637893677E0
1.411421724E1,9.699872732E-1,1.924116898E1,-2.333667874E-1
1.412396745E1,2.259390801E-1,1.738435364E1,-2.208556652E0
1.413371756E1,1.696170270E-1,1.504315567E1,-3.657094717E0
1.414346776E1,3.491415381E-1,1.186236954E1,-4.911368370E0
1.415321797E1,2.372651100E-1,8.316046715E0,-5.209955215E0
1.416296808E1,-1.968425512E-2,5.285005569E0,-4.229806900E0
1.417271839E1,-3.847427964E-1,2.861605644E0,-1.871454716E0
1.418246849E1,-5.555173755E-1,5.627183914E-1,1.007342339E0
1.419221870E1,-1.226712942E0,-1.907054901E0,4.685245991E0
1.420196891E1,-2.011517048E0,-3.718779564E0,7.270713806E0
1.421171912E1,-1.518803954E0,-3.912746429E0,6.522848129E0
1.422146933E1,-3.892784715E-1,-3.403552055E0,4.441653252E0
1.423121954E1,9.855196476E-1,-3.741784096E0,2.204126835E0
1.424096964E1,1.881510615E0,-4.985451221E0,-5.792741776E-1
1.425071985E1,2.049926758E0,-6.435258865E0,-2.688640833E0
1.426047006E1,2.206624031E0,-7.683963776E0,-4.001023769E0
1.427022016E1,2.343438864E0,-8.546195030E0,-4.895598412E0
1.427997047E1,2.253160715E0,-9.102984428E0,-5.612552643E0
1.428972058E1,1.567648530E0,-9.514207840E0,-6.290909767E0
1.429947078E1,7.226735353E-2,-1.006599903E1,-5.418382645E0
1.430922099E1,-1.349100828E0,-1.041001606E1,-4.164386272E0
1.431897120E1,-1.593231201E0,-1.012758446E1,-3.736382484E0
1.432872141E1,-1.079741478E0,-9.397747040E0,-3.457584381E0
1.433847151E1,-4.168242812E-1,-8.760443687E0,-2.752502441E0
1.434822172E1,1.133741289E-1,-8.482159615E0,-1.561179757E0
1.435797193E1,8.256382942E-1,-8.446915627E0,-2.162542343E-1
1.436772214E1,1.496974707E0,-8.483251572E0,1.064394593E0
1.437747235E1,1.693178535E0,-8.442336082E0,1.795732260E0
1.438722245E1,1.295517206E0,-8.230663300E0,1.473834515E0
1.439697266E1,5.017027259E-1,-8.226063728E0,7.743558884E-1
1.440672287E1,-3.992183805E-1,-8.783326149E0,7.078495026E-1
1.441647308E1,-1.157764792E0,-9.287605286E0,6.017308235E-1
1.442622328E1,-1.425693512E0,-9.306752205E0,-1.861088276E-1
1.443597339E1,-1.478296638E0,-9.145748138E0,-5.099653006E-1
1.444572360E1,-1.343666077E0,-9.083203316E0,-1.109542847E-1
1.445547381E1,-8.256312013E-1,-8.764028549E0,3.644706011E-1
1.446522401E1,2.196827829E-1,-7.859549522E0,5.217961073E-1
1.447497422E1,1.302432299E0,-6.527210236E0,9.450225830E-1
1.448472433E1,1.693869352E0,-4.501589775E0,1.522762060E0
1.449447454E1,8.620030880E-1,-1.758002281E0,1.856071949E-1
1.450422474E1,-1.427497864E-1,2.216526985E0,-2.198850155E0
1.451397495E1,-1.216632009E0,6.787211418E0,-4.621867657E0
1.452372516E1,-1.455332041E0,9.871153831E0,-6.087142944E0
1.453347526E1,-7.362349629E-1,1.191875648E1,-6.933135986E0
1.454322547E1,8.671094179E-1,1.607587814E1,-5.606717587E0
1.455297568E1,3.249907732E0,2.025698090E1,-1.064947963E0
1.456272589E1,4.685990810E0,2.333885193E1,2.385417223E0
1.457247599E1,4.272437572E0,2.496044540E1,3.264563560E0
1.458222620E1,3.189068317E0,2.567209625E1,7.846643925E-1
1.459197641E1,1.305189371E0,2.520885086E1,-2.609848261E0
1.460172662E1,-8.541809320E-1,2.415770340E1,-4.871011734E0
1.461147683E1,-1.973759651E0,2.266941071E1,-6.306964874E0
1.462122693E1,-1.888433337E0,2.043153954E1,-5.443353653E0
1.463097714E1,-1.185706258E0,1.720164299E1,2.653322220E-1
1.464072735E1,-1.827318668E-1,1.230638695E1,7.636307716E0
1.465047756E1,1.129391789E0,6.170327187E0,1.337247658E1
1.466022766E1,2.505789042E0,1.135939598E0,1.850352097E1
1.466997787E1,8.472339511E-1,-1.367680550E0,1.622101402E1
1.467972808E1,-2.852818727E0,-1.565132141E0,7.612469196E0
1.468947829E1,-5.023910046E0,-1.853778839E0,-2.902819514E-1
1.469922839E1,-4.991162300E0,-4.048367977E0,-4.981768608E0
1.470897860E1,-3.692849636E0,-6.347785950E0,-8.207174301E0
1.471872881E1,-1.723802924E0,-7.449735165E0,-9.249800682E0
1.472847901E1,-4.028283358E-1,-8.662023544E0,-7.393812180E0
1.473822922E1,3.691481054E-1,-1.083776855E1,-4.655106544E0
1.474797933E1,2.086101055E0,-1.355721664E1,-1.575212717E0
1.475772954E1,4.804512978E0,-1.396842575E1,-1.550192833E-1
1.476747974E1,5.997033119E0,-1.278794670E1,2.253469825E-1
1.477722995E1,5.107158184E0,-1.202862644E1,-6.944777966E-1
1.478698006E1,3.388033628E0,-1.128800583E1,-1.888358593E0
1.479673026E1,1.239526153E0,-1.000543499E1,-2.323203325E0
1.480648037E1,-2.129546404E-1,-9.533944130E0,-2.022942066E0
1.481623068E1,-1.205401182E0,-9.589569092E0,-5.042219758E-1
1.482598078E1,-1.684655070E0,-9.366263390E0,8.874109387E-1
1.483573099E1,-1.421097994E0,-9.269163132E0,1.789413929E0
1.484548120E1,-5.699128509E-1,-9.323832512E0,2.203797340E0
1.485523141E1,6.300516129E-1,-9.341894150E0,1.174356103E0
1.486498151E1,1.573123693E0,-9.185499191E0,-2.134323716E-1
1.487473172E1,1.855866194E0,-9.118688583E0,-1.412282705E0
1.488448193E1,1.779340029E0,-9.197844505E0,-2.226231337E0
1.489423214E1,1.887006044E0,-9.266953468E0,-2.469048500E0
1.490398224E1,1.583797455E0,-9.582459450E0,-1.615277648E0
1.491373245E1,1.006447792E0,-9.687378883E0,-2.205238938E-1
1.492348266E1,9.532123804E-1,-9.884642601E0,6.557964087E-1
1.493323287E1,8.032057881E-1,-1.013693333E1,1.515007496E0
1.494298297E1,7.979079485E-1,-9.885228157E0,1.898690343E0
1.495273318E1,9.072337747E-1,-9.564205170E0,1.700541258E0
1.496248339E1,9.221674204E-1,-9.241641045E0,1.101956129E0
1.497223360E1,5.082338452E-1,-8.610918999E0,1.593937278E-1
1.498198381E1,5.599711537E-1,-8.084804535E0,-9.257763028E-1
1.499173391E1,9.879841805E-1,-7.602422237E0,-2.309225082E0
1.500148412E1,8.075881004E-1,-6.622103691E0,-2.821646690E0
1.501123433E1,1.019655466E0,-5.284606934E0,-2.398292542E0
1.502098443E1,1.176209450E0,-3.577921867E0,-1.362745285E0
1.503073464E1,1.001013041E0,-8.273210526E-1,-1.328223467E0
1.504048485E1,6.767835021E-1,2.783603668E0,-1.333461165E0
1.505023506E1,-5.948847532E-2,6.652418137E0,-1.006307125E0
1.505998516E1,-6.183006167E-1,1.040355110E1,7.249622345E-1
1.506973537E1,-1.768918514E0,1.370421028E1,3.379434109E0
1.507948558E1,-3.395648241E0,1.591475296E1,5.938816547E0
1.508923579E1,-4.278474808E0,1.726323891E1,7.791332722E0
1.509898589E1,-5.267235756E0,1.853876877E1,1.008953857E1
1.510873610E1,-6.447536469E0,2.057508850E1,1.098053455E1
1.511848631E1,-6.978365421E0,2.216049957E1,7.768471718E0
1.512823651E1,-5.630876064E0,2.366817474E1,3.978623867E0
1.513798662E1,-3.030086279E0,2.445139122E1,1.425369263E0
1.514773683E1,-4.850816429E-1,2.313503456E1,-2.345001698E-1
1.515748704E1,1.160062432E0,2.097096252E1,8.496673107E-1
1.516723724E1,1.846180081E0,1.885425568E1,4.009258270E0
1.517698735E1,1.818362474E0,1.575549698E1,7.548250675E0
1.518673756E1,1.271124244E0,1.238676929E1,1.096544456E1
1.519648776E1,1.185601115E0,1.015272141E1,1.022790241E1
1.520623797E1,9.475781322E-1,7.472443581E0,6.895355701E0
1.521598808E1,2.086725235E-1,4.411601067E0,2.688999414E0
1.522573828E1,-6.597281098E-1,1.918560982E0,-6.233444214E-1
1.523548849E1,-1.720022321E0,-1.649503708E-1,-2.560497761E0
1.524523860E1,-2.170963526E0,-2.318055630E0,-3.521120071E0
1.525498881E1,-1.408629417E0,-4.339997292E0,-3.642709255E0
1.526473901E1,2.000525594E-1,-6.427462578E0,-2.994310141E0
1.527448922E1,1.339562893E0,-9.031150818E0,-9.215625525E-1
1.528423933E1,2.184292793E0,-1.068107605E1,6.640784740E-1
1.529398954E1,3.312918186E0,-1.094993591E1,-1.068722486E0
1.530373974E1,3.591275930E0,-1.031005669E1,-5.295216560E0
1.531348995E1,2.157051086E0,-9.814470291E0,-7.839847565E0
1.532324006E1,9.722198248E-1,-9.649920464E0,-9.007799149E0
1.533299026E1,1.997971535E-1,-9.955595970E0,-7.543897152E0
1.534274047E1,-1.321341991E0,-1.078989410E1,-3.108956337E0
1.535249058E1,-2.426244736E0,-1.023798752E1,-1.252430916E0
1.536224079E1,-2.531805038E0,-9.835329056E0,4.593720436E-1
1.537199099E1,-2.083005190E0,-9.800247192E0,2.361040115E0
1.538174120E1,-9.320999980E-1,-9.260293961E0,2.740264416E0
1.539149131E1,-1.877775043E-1,-8.676263809E0,2.066575050E0
1.540124151E1,3.000164032E-2,-8.197052002E0,5.637483597E-1
1.541099172E1,2.787210047E-1,-7.829206467E0,-9.641801119E-1
1.542074183E1,4.161441922E-1,-7.922785759E0,-2.457024336E0
1.543049204E1,8.435838223E-1,-8.199355125E0,-3.491063595E0
1.544024224E1,8.434180021E-1,-8.681740761E0,-3.660833120E0
1.544999245E1,3.720569015E-1,-9.229771614E0,-2.995522976E0
1.545974256E1,1.049411893E-1,-9.623718262E0,-2.244098902E0
1.546949276E1,1.900158823E-1,-9.799658775E0,-2.381655216E0
1.547924297E1,3.038602471E-1,-9.782444000E0,-2.095584393E0
1.548899308E1,1.526682228E-1,-8.956263542E0,-1.776950717E0
1.549874329E1,-5.996792912E-1,-7.568676949E0,-1.428521037E0
1.550849349E1,-1.531545877E0,-6.041171074E0,-2.043785334E0
1.551824370E1,-1.790057421E0,-4.960716248E0,-2.869497299E0
1.552799381E1,-1.254666448E0,-3.671390533E0,-3.733475208E0
1.553774401E1,-9.398180246E-1,-1.929263115E0,-4.426649570E0
1.554749422E1,-1.053999424E0,5.156030655E-1,-4.014590740E0
1.555724433E1,-1.541525841E0,3.715325356E0,-3.160908699E0
1.556699454E1,-3.253667116E0,7.602512360E0,-2.351242781E0
1.557674474E1,-4.437515736E0,1.183375072E1,-3.428568840E-1
1.558649485E1,-2.947610855E0,1.504798794E1,3.596584797E0
1.559624506E1,-6.046703458E-1,1.736346436E1,7.226626873E0
1.560599526E1,1.060532331E0,1.944404602E1,9.124832153E0
1.561574547E1,2.064262152E0,2.095448494E1,1.040633678E1
1.562549558E1,3.200122595E0,2.265662384E1,1.048991871E1
1.563524578E1,4.921183586E0,2.399311447E1,9.861685753E0
1.564499599E1,5.010823727E0,2.416749382E1,9.771773338E0
1.565474610E1,3.986742020E0,2.384036446E1,6.452372551E0
1.566449631E1,1.673855066E0,2.201054573E1,2.144388914E0
1.567424651E1,-7.163042426E-1,1.893128777E1,-1.979211807E0
1.568399672E1,-2.018837690E0,1.481929684E1,-5.111112118E0
1.569374683E1,-2.952810287E0,9.970509529E0,-6.217747688E0
1.570349704E1,-3.472316265E0,5.089406013E0,-6.565036774E0
1.571324724E1,-2.583747864E0,1.250748634E0,-5.492312431E0
1.572299735E1,-9.064194560E-1,-1.584392548E0,-2.489050150E0
1.573274756E1,8.000516891E-1,-3.982139111E0,3.322093487E-1
1.574249776E1,1.841825843E0,-6.116711140E0,1.188307762E0
1.575224787E1,2.473219872E0,-7.782877445E0,2.328081131E0
1.576199808E1,1.975512028E0,-8.331528664E0,2.213526726E0
1.577174829E1,5.637140274E-1,-9.185039520E0,3.138785362E-1
1.578149839E1,-1.017444253E0,-1.058591080E1,-1.827300906E0
1.579124860E1,-1.767220259E0,-1.157366562E1,-4.338838100E0
1.580099881E1,-1.986813307E0,-1.241974354E1,-4.945378304E0
1.581074891E1,-1.767053843E0,-1.228457642E1,-5.418716431E0
1.582049912E1,-1.423295140E0,-1.172438717E1,-5.695199013E0
1.583024933E1,-6.578435302E-1,-1.136479759E1,-5.027194500E0
1.583999954E1,6.575139165E-1,-1.067537689E1,-4.337416649E0
1.584974964E1,1.542710662E0,-9.725547791E0,-3.119567871E0
1.585949985E1,2.606322050E0,-8.581824303E0,-8.685138226E-1
1.586925006E1,3.307274103E0,-7.983752728E0,1.113775730E0
1.587900016E1,3.091157675E0,-7.951278687E0,1.967663288E0
1.588875037E1,2.487165928E0,-7.858648300E0,2.043359518E0
1.589850058E1,1.397708416E0,-8.084564209E0,1.621036768E0
1.590825068E1,3.765425086E-1,-8.334643364E0,1.348555088E-1
1.591800089E1,-5.378422737E-1,-8.722682953E0,-1.551414013E0
1.592775110E1,-1.595721245E0,-8.855300903E0,-2.776063919E0
1.593750120E1,-2.507488728E0,-8.771968842E0,-2.939585686E0
1.594725141E1,-2.172608614E0,-9.170875549E0,-2.216313839E0
1.595700162E1,-6.198427677E-1,-9.218605995E0,-7.942616940E-1
1.596675172E1,1.832141280E0,-8.197863579E0,3.239340782E-1
1.597650193E1,3.041897774E0,-7.153411865E0,1.510944843E0
1.598625214E1,2.470575094E0,-6.644757271E0,2.001478672E0
1.599600224E1,1.260855794E0,-6.157899857E0,6.624219418E-1
1.600575245E1,-1.970068693E0,-5.516003132E0,-2.193403482E0
1.601550266E1,-5.551146507E0,-3.768077374E0,-9.120387077E0
1.602525276E1,-6.753226757E0,-1.312895775E0,-1.252642727E1
1.603500297E1,-3.161403656E0,1.742643356E0,-1.004777908E1
1.604475318E1,3.247619152E0,6.100582123E0,-3.031748056E0
1.605450329E1,7.555721283E0,1.116450310E1,4.018162727E0
1.606425349E1,8.209081650E0,1.488162422E1,1.012162399E1
1.607400370E1,5.625647068E0,1.550543594E1,1.421036148E1
1.608375381E1,1.399272561E0,1.461978054E1,1.523186111E1
1.609350401E1,-1.813359261E0,1.465163422E1,1.263823986E1
1.610325422E1,-2.623536825E0,1.601954842E1,6.167306423E0
1.611300433E1,-2.533851385E0,1.712002945E1,2.056634426E-1
1.612275454E1,-1.281886578E0,1.762537766E1,-3.664904594E0
1.613250474E1,1.298486590E-1,1.814592934E1,-6.024079323E0
1.614225485E1,1.089490533E0,1.807081032E1,-6.201260567E0
1.615200506E1,1.964811802E0,1.754830170E1,-1.936125278E0
1.616175526E1,2.646728754E0,1.576832676E1,4.405920506E0
1.617150537E1,1.561048031E0,1.232291317E1,8.716395378E0
1.618125558E1,7.511653304E-1,8.685874939E0,1.062630463E1
1.619100578E1,1.602474213E0,5.645225525E0,1.156974030E1
1.620075589E1,3.507448673E0,2.258651733E0,1.034495068E1
1.621050610E1,3.716996431E0,-1.476134300E0,3.025513172E0
1.622025631E1,1.500938416E0,-4.734883308E0,-4.780199051E0
1.623000641E1,2.729576826E-1,-7.337241173E0,-5.404449940E0
1.623975662E1,-2.538045049E-1,-9.910421371E0,-3.735212326E0
1.624950683E1,-1.332300663E0,-1.204147434E1,-3.333663940E0
1.625925693E1,-2.699723721E0,-1.351759148E1,-3.850240231E0
1.626900714E1,-3.086596012E0,-1.379107285E1,-4.228190422E0
1.627875735E1,-2.405039310E0,-1.278305626E1,-3.139570236E0
1.628850745E1,-1.171600103E0,-1.191113091E1,-7.816948295E-1
1.629825766E1,6.367796659E-1,-1.144695854E1,-3.510377407E-1
1.630800787E1,1.751264811E0,-1.037433052E1,-1.664727092E0
1.631775797E1,1.372342587E0,-9.350271225E0,-2.804583788E0
1.632750818E1,6.893231869E-1,-8.763924599E0,-3.375285149E0
1.633725839E1,2.237194777E-1,-8.830284119E0,-2.276576042E0
1.634700849E1,-4.721929431E-1,-8.566131592E0,-7.982601523E-1
1.635675870E1,-5.410854816E-1,-8.049639702E0,6.789578199E-1
1.636650891E1,-5.244063139E-1,-7.819737434E0,2.033182859E0
1.637625901E1,-1.752868652E0,-7.753516197E0,2.326942682E0
1.638600922E1,-2.326508045E0,-7.314747810E0,2.804411888E0
1.639575943E1,-1.046654105E0,-6.863806248E0,2.947916269E0
1.640550954E1,6.011836529E-1,-6.554928303E0,1.042383075E0
1.641525974E1,2.523280144E0,-6.974035263E0,4.302268028E-1
1.642500995E1,2.946166754E0,-7.489892960E0,1.850693226E-1
1.643476006E1,8.848696947E-1,-8.128941536E0,-1.201007962E0
1.644451026E1,-1.333701611E0,-8.330781937E0,-2.042915821E0
1.645426047E1,-2.817861319E0,-8.224715233E0,-3.239223957E0
1.646401058E1,-2.574780941E0,-7.938822269E0,-4.522324562E0
1.647376078E1,-6.361879110E-1,-6.291934967E0,-3.666191578E0
1.648351099E1,1.158694267E0,-4.216954231E0,-9.120843410E-1
1.649326110E1,1.499672174E0,-2.216389656E0,4.655486345E-1
1.650301120E1,2.965977788E-1,8.705730438E-1,1.124385118E0
1.651276151E1,-1.918255210E0,5.003032684E0,3.032052517E-1
1.652251162E1,-3.877546072E0,9.132287025E0,-1.589038968E0
1.653226183E1,-4.333033562E0,1.183202267E1,-1.193035483E0
1.654201204E1,-2.776996851E0,1.411714840E1,1.304568529E0
1.655176214E1,8.394856453E-1,1.707176208E1,3.004445076E0
1.656151235E1,2.992185593E0,2.052452469E1,2.677674532E0
1.657126256E1,3.416588306E0,2.427515030E1,3.102144241E0
1.658101266E1,1.449947834E0,2.710823059E1,3.650218010E0
1.659076287E1,-8.461177945E-1,2.909128189E1,3.917877674E0
1.660051308E1,-2.306607485E0,3.005369186E1,4.777528286E0
1.661026318E1,-3.084250689E0,2.948680115E1,5.831439972E0
1.662001339E1,-2.602175713E0,2.693180275E1,8.468900681E0
1.662976360E1,5.652322769E-1,2.316881561E1,1.130364704E1
1.663951370E1,1.948247910E0,1.824320602E1,1.154145908E1
1.664926391E1,1.952416778E0,1.305118179E1,6.830264568E0
1.665901412E1,3.091297448E-1,6.521499634E0,1.607995033E-1
1.666876422E1,-1.500456095E0,-8.415889740E-2,-4.755738258E0
1.667851443E1,-1.809901834E0,-4.687093258E0,-4.548671722E0
1.668826464E1,-1.238115072E0,-8.614484787E0,-2.949642420E0
1.669801474E1,1.185397506E-1,-1.235098648E1,-2.301642895E0
1.670776495E1,1.967160821E0,-1.532524681E1,1.822003722E-1
1.671751516E1,2.533653498E0,-1.717389107E1,2.219387531E0
1.672726526E1,2.712287903E0,-1.804716110E1,2.592390060E0
1.673701547E1,2.215804338E0,-1.767271423E1,6.843894124E-1
1.674676568E1,1.461972475E0,-1.584381104E1,-1.852993250E0
1.675651578E1,3.855520487E-1,-1.442092228E1,-4.463881969E0
1.676626599E1,-3.204357624E-2,-1.301852703E1,-5.728691101E0
1.677601620E1,1.971322298E-2,-1.133405972E1,-3.987599611E0
1.678576631E1,7.826055288E-1,-1.010662460E1,-1.269551635E0
1.679551651E1,1.569802165E0,-8.602649689E0,1.876637340E-1
1.680526672E1,1.924059749E0,-7.199756145E0,1.356790781E0
1.681501683E1,1.960246444E0,-6.251536369E0,2.573314667E0
1.682476704E1,1.105819345E0,-6.457736015E0,3.434688330E0
1.683451724E1,-1.797309518E-2,-6.917150021E0,3.466475487E0
1.684426735E1,-8.506431580E-1,-7.758205891E0,2.831964493E0
1.685401756E1,-1.146053672E0,-8.861678123E0,6.760362387E-1
1.686376776E1,-1.154584646E0,-9.810001373E0,-1.249200344E0
1.687351797E1,-9.252223969E-1,-1.044025040E1,-2.696353436E0
1.688326808E1,-4.832332432E-1,-1.075009918E1,-3.403554678E0
1.689301828E1,5.302218795E-1,-1.046325684E1,-2.891667366E0
1.690276839E1,9.989868402E-1,-9.835179329E0,-1.601486444E0
1.691251860E1,5.549342632E-1,-8.928110123E0,3.770146966E-1
1.692226881E1,-1.542659700E-1,-8.070056915E0,1.111758471E0
1.693201901E1,-3.468301594E-1,-8.052845955E0,5.951219201E-1
1.694176912E1,-3.065855503E-1,-8.246511459E0,2.647131681E-2
1.695151933E1,-7.087692618E-2,-8.199169159E0,-7.680048943E-1
1.696126954E1,3.360499144E-1,-7.824666023E0,-2.189928055E0
1.697101964E1,5.244036913E-1,-6.532890320E0,-4.028087139E0
1.698076985E1,3.780128360E-1,-4.002092361E0,-6.548906803E0
1.699052006E1,3.558027148E-1,-1.029802322E0,-7.768076897E0
1.700027016E1,7.933002114E-1,3.230361938E0,-6.754951477E0
1.701002037E1,1.463342667E0,8.396045685E0,-3.119758129E0
1.701977058E1,1.473821402E0,1.357075214E1,2.016421795E0
1.702952068E1,1.812937856E0,1.836603546E1,4.050416946E0
1.703927089E1,1.557294488E0,2.143190384E1,5.348119736E0
1.704902110E1,3.569513559E-2,2.408855057E1,9.214717865E0
1.705877131E1,4.263885021E-1,2.740589714E1,1.270215321E1
1.706852141E1,2.095930576E0,2.908834839E1,1.227645206E1
1.707827162E1,2.453447342E0,2.964065170E1,8.234708786E0
1.708802183E1,1.458222508E0,2.967139053E1,3.293982506E0
1.709777193E1,-1.975846440E-1,2.845344543E1,1.393421173E0
1.710752214E1,-1.377378583E0,2.549150848E1,2.332891464E0
1.711727235E1,-2.005388498E0,2.076649857E1,3.989850521E0
1.712702256E1,-2.058151960E0,1.528066635E1,5.213658810E0
1.713677266E1,-1.096377492E0,9.718073845E0,5.506699562E0
1.714652276E1,3.438073099E-1,3.793565750E0,4.802004814E0
1.715627308E1,1.477946043E0,-1.594199181E0,3.288024902E0
1.716602318E1,1.840529680E0,-5.886869907E0,7.181859612E-1
1.717577339E1,1.642088771E0,-9.730519295E0,-9.589599371E-1
1.718552360E1,1.390408278E0,-1.253961563E1,-2.945583820E0
1.719527370E1,1.278971672E0,-1.464271927E1,-4.112155914E0
1.720502391E1,8.797792792E-1,-1.626055717E1,-4.367578506E0
1.721477412E1,2.377189547E-1,-1.659367752E1,-3.272874355E0
1.722452433E1,-9.510954469E-2,-1.583914757E1,-2.718744040E0
1.723427443E1,4.105749130E-1,-1.439143848E1,-2.227163076E0
1.724402464E1,1.382507920E0,-1.238382339E1,-1.445481062E0
1.725377485E1,1.586017013E0,-1.052692223E1,-1.440612197E0
1.726352506E1,9.165481925E-1,-9.725039482E0,-2.710978389E-1
1.727327516E1,3.175798953E-1,-9.297475815E0,4.758203626E-1
1.728302537E1,-2.283981591E-1,-9.613097191E0,1.733076215E0
1.729277558E1,-8.840587139E-1,-1.019511223E1,1.510509610E0
1.730252568E1,-1.243380308E0,-1.092123890E1,9.563557506E-1
1.731227589E1,-5.849185586E-1,-1.115863609E1,8.224415779E-1
1.732202610E1,1.390354335E-1,-1.111848736E1,3.563079238E-1
1.733177631E1,4.105010033E-1,-1.088974953E1,-1.712849736E-2
1.734152641E1,3.272961974E-1,-1.034398174E1,4.203200340E-3
1.735127662E1,1.541651189E-1,-9.909109116E0,-4.592102468E-1
1.736102683E1,-4.873669147E-2,-9.754184723E0,-4.896265268E-1
1.737077704E1,-3.973046839E-1,-9.467815399E0,-7.939099073E-1
1.738052714E1,-9.208834171E-1,-9.527813911E0,-5.394206047E-1
1.739027735E1,-8.469339013E-1,-9.637841225E0,7.924311161E-1
1.740002756E1,-3.475693762E-1,-9.833931923E0,1.313143015E0
1.740977776E1,-7.309819758E-2,-9.815244675E0,1.038133740E0
1.741952787E1,4.033032060E-1,-9.546412468E0,9.016562104E-1
1.742927808E1,5.424468517E-1,-9.094374657E0,1.086930633E-1
1.743902829E1,2.151589394E-1,-8.267989159E0,-1.457202673E0
1.744877849E1,-7.595096827E-1,-6.491477489E0,-3.930674076E0
1.745852860E1,-1.136316299E0,-3.946866035E0,-4.908080101E0
1.746827881E1,-1.264458060E0,-6.111268997E-1,-4.600073814E0
1.747802901E1,-1.236057997E0,3.927036285E0,-2.833560944E0
1.748777922E1,-2.130507708E0,9.522210121E0,1.142971158E0
1.749752943E1,-4.248177052E0,1.616260529E1,4.264392853E0
1.750727954E1,-5.952995777E0,2.146518707E1,5.426508427E0
1.751702974E1,-5.495490551E0,2.563950157E1,6.627238274E0
1.752677995E1,-2.542305470E0,2.958484077E1,6.439328671E0
1.753653016E1,1.557811022E0,3.311115646E1,5.247833252E0
1.754628037E1,4.361521244E0,3.507051849E1,5.829255581E0
1.755603047E1,5.263476372E0,3.512163544E1,8.300011635E0
1.756578068E1,4.996867657E0,3.368297958E1,8.843177795E0
1.757553089E1,3.614413977E0,2.977439499E1,8.970300674E0
1.758528110E1,2.194162369E0,2.380902100E1,7.500364304E0
1.759503131E1,8.901380897E-1,1.749813843E1,5.267778397E0
1.760478141E1,3.163492084E-1,1.134199810E1,3.167340755E0
1.761453162E1,-6.703500450E-2,5.248717308E0,3.887813091E-1
1.762428183E1,-1.381548047E-1,-1.380414963E-1,-5.684316754E-1
1.763403204E1,-1.579826474E-1,-4.604315758E0,2.847433090E-1
1.764378224E1,-3.060139418E-1,-8.520845413E0,1.505622864E-1
1.765353245E1,-5.860046148E-1,-1.178692913E1,3.936125040E-1
1.766328256E1,-3.977448940E-1,-1.366886330E1,-4.189845920E-2
1.767303276E1,5.146701634E-2,-1.483077526E1,-1.302294016E0
1.768278297E1,5.384882092E-1,-1.565869427E1,-2.486056089E0
1.769253318E1,7.385965586E-1,-1.575511551E1,-3.511753798E0
1.770228339E1,6.379911304E-1,-1.491469288E1,-4.155877590E0
1.771203360E1,9.069855213E-1,-1.353874969E1,-3.857636690E0
1.772178370E1,1.371621251E0,-1.219202328E1,-2.972766161E0
1.773153391E1,1.398688793E0,-1.120855331E1,-1.872579932E0
1.774128412E1,5.017377138E-1,-1.025805283E1,7.329931855E-2
1.775103433E1,-7.972543836E-1,-9.423917770E0,1.429415464E0
1.776078454E1,-1.927145720E0,-8.939936638E0,2.061185837E0
1.777053474E1,-2.246188641E0,-8.545776367E0,3.054956675E0
1.778028485E1,-1.834072232E0,-8.341761589E0,2.853290081E0
1.779003506E1,-8.940653205E-1,-8.332147598E0,2.189630032E0
1.779978526E1,-1.355993301E-1,-8.609198570E0,1.099157572E0
1.780953547E1,4.061248004E-1,-9.183873177E0,1.231976151E-1
1.781928568E1,9.177117348E-1,-9.687734604E0,-3.380284309E-1
1.782903589E1,9.637018442E-1,-1.007798386E1,-7.750321627E-1
1.783878610E1,7.540049553E-1,-1.030487061E1,-6.774194241E-1
1.784853631E1,2.440112084E-1,-9.970681190E0,-4.520195723E-2
1.785828641E1,-5.454699993E-1,-9.452206612E0,2.312960625E-1
1.786803662E1,-9.189995527E-1,-9.236476898E0,-3.872603178E-2
1.787778683E1,-6.226279140E-1,-9.243066788E0,-1.258796453E0
1.788753704E1,-3.648752570E-1,-9.614573479E0,-1.076806545E0
1.789728724E1,-4.242928326E-1,-9.727237701E0,-6.992388368E-1
1.790703745E1,8.406555280E-3,-9.865739822E0,-1.883900166E-2
1.791678766E1,3.094633222E-1,-9.650602341E0,7.145137787E-1
1.792653787E1,-9.216775000E-2,-8.462178230E0,-1.154463291E-1
1.793628808E1,-4.660451412E-1,-6.175575733E0,-2.903100252E0
1.794603818E1,-2.400163263E-1,-3.219513893E0,-5.317715645E0
1.795578839E1,6.361480951E-1,6.303529739E-1,-6.340644360E0
1.796553860E1,1.565161705E0,4.931631088E0,-4.420412540E0
1.797528881E1,1.869101375E-1,1.038213158E1,-1.902968884E-1
1.798503901E1,-2.889999151E0,1.595986176E1,2.070812702E0
1.799478922E1,-5.899189949E0,2.040742493E1,4.073790550E0
1.800453943E1,-6.764821529E0,2.413517380E1,1.021942520E1
1.801428964E1,-1.863419652E0,2.879924393E1,1.176198101E1
1.802403985E1,4.272931099E0,3.268037415E1,8.918798447E0
1.803379006E1,7.210618019E0,3.429486084E1,4.615843773E0
1.804354026E1,6.659145355E0,3.318077469E1,1.010572910E0
1.805329047E1,4.174629688E0,3.024574280E1,-8.136337996E-1
1.806304068E1,2.220762014E0,2.636734009E1,-8.679896593E-1
1.807279089E1,3.928444684E-1,2.175175095E1,1.515553951E0
1.808254099E1,-1.265646458E0,1.650501823E1,3.985165596E0
1.809229120E1,-1.795681596E0,1.094966793E1,4.951223373E0
1.810204141E1,-1.431728959E0,5.636773109E0,5.561562061E0
1.811179162E1,-7.971290946E-1,1.027852058E0,4.444260120E0
1.812154183E1,-4.478992820E-1,-3.229332924E0,2.666039228E0
1.813129204E1,-4.732893109E-1,-6.971730232E0,7.342511415E-1
1.814104224E1,-5.045586228E-1,-1.009083748E1,-1.217209935E0
1.815079245E1,-1.167741418E-1,-1.283239937E1,-2.089742661E0
1.816054266E1,7.279733419E-1,-1.520292950E1,-1.573971033E0
1.817029287E1,1.951720595E0,-1.650002861E1,-7.090498209E-1
1.818004308E1,2.482784510E0,-1.718067360E1,7.947701216E-2
1.818979328E1,1.784870744E0,-1.646063232E1,-9.521986246E-1
1.819954349E1,8.573085666E-1,-1.461962128E1,-2.395853519E0
1.820929370E1,-1.584479362E-1,-1.250475883E1,-3.280265331E0
1.821904391E1,-1.278285265E0,-1.085159492E1,-3.178140402E0
1.822879412E1,-1.905501366E0,-9.478178024E0,-7.987188101E-1
1.823854433E1,-1.594272494E0,-8.596914291E0,1.501598597E0
1.824829454E1,-1.006352901E0,-8.369488716E0,2.486885786E0
1.825804474E1,-4.030055702E-1,-8.406277657E0,2.769392490E0
1.826779495E1,1.899173856E-2,-8.547496796E0,2.486108065E0
1.827754516E1,2.842065394E-1,-8.697295189E0,1.043496966E0
1.828729537E1,2.426348329E-1,-8.694719315E0,-1.105496287E0
1.829704558E1,7.478159666E-2,-8.927673340E0,-2.181599140E0
1.830679579E1,8.726468682E-2,-9.168168068E0,-2.401367664E0
1.831654599E1,-2.099260688E-1,-9.387844086E0,-2.452720165E0
1.832629620E1,-5.657838583E-1,-9.861713409E0,-1.941460609E0
1.833604641E1,-8.050832748E-1,-1.042991447E1,-1.445324898E0
1.834579662E1,-6.380562782E-1,-1.044342995E1,-8.223855495E-1
1.835554683E1,-8.635286987E-2,-1.007461929E1,-9.110307693E-1
1.836529704E1,6.303924322E-1,-9.271627426E0,-9.075455666E-1
1.837504724E1,1.570210457E0,-8.189269066E0,-1.429483891E-1
1.838479745E1,2.119182110E0,-7.996743202E0,9.781546593E-1
1.839454766E1,1.886914015E0,-7.937210083E0,1.340748668E0
1.840429787E1,1.341641545E0,-7.597663879E0,-1.255531311E-1
1.841404808E1,4.741636813E-1,-6.260360718E0,-2.114535570E0
1.842379828E1,-7.527275681E-1,-4.001736164E0,-4.794617653E0
1.843354849E1,-1.367030621E0,-7.954368591E-1,-6.832975388E0
1.844329870E1,-1.053109527E0,3.016384125E0,-5.895264149E0
1.845304891E1,-1.375792921E-1,6.952746391E0,-1.804748058E0
1.846279912E1,3.546634912E-1,1.205933857E1,3.322810650E0
1.847254933E1,-9.857849032E-2,1.721261215E1,6.449585915E0
1.848229954E1,-8.694639206E-1,2.148466110E1,8.735391617E0
1.849204974E1,-4.242622852E-1,2.550753784E1,9.680158615E0
1.850179995E1,1.115363836E-1,2.863155746E1,7.615167618E0
1.851155016E1,5.686100721E-1,3.060707092E1,4.957989693E0
1.852130037E1,4.518883824E-1,3.196188736E1,2.820942163E0
1.853105058E1,-3.815144300E-1,3.225092316E1,3.357713223E0
1.854080079E1,-9.654979110E-1,3.096178055E1,5.190608025E0
1.855055110E1,-1.063034058E0,2.751502800E1,9.462306023E0
1.856030131E1,-5.026077628E-1,2.305948639E1,1.678486824E1
1.857005151E1,-1.137167811E-1,1.818262863E1,1.782065201E1
1.857980172E1,-3.600262403E-1,1.248003483E1,1.286453056E1
1.858955193E1,-6.427327394E-1,6.651183128E0,6.693768978E0
1.859930214E1,-9.613541365E-1,5.667505264E-1,8.517296314E-1
1.860905235E1,-1.272393465E0,-5.124414444E0,-3.510950804E0
1.861880256E1,-8.330317140E-1,-1.025710964E1,-3.738336563E0
1.862855276E1,2.255583405E-1,-1.446660233E1,-1.551916003E0
1.863830297E1,1.486608267E0,-1.763291550E1,-2.950700521E-1
1.864805318E1,2.056725502E0,-2.016272545E1,-8.301874995E-2
1.865780339E1,2.321130037E0,-2.150780487E1,-8.505825996E-1
1.866755360E1,2.718761444E0,-2.144767761E1,-2.708834887E0
1.867730381E1,2.943919897E0,-2.022362518E1,-4.489737988E0
1.868705401E1,2.210391045E0,-1.873632431E1,-6.699237347E0
1.869680433E1,9.130598903E-1,-1.738488579E1,-7.489899635E0
1.870655454E1,-1.951549947E-1,-1.598234558E1,-5.907701969E0
1.871630474E1,-9.837425947E-1,-1.439822578E1,-2.730603695E0
1.872605495E1,-1.658388615E0,-1.338668442E1,7.542537451E-1
1.873580516E1,-1.726437092E0,-1.202022552E1,3.362864733E0
1.874555537E1,-1.022158861E0,-9.751992226E0,3.657221794E0
1.875530558E1,-4.346898496E-1,-7.699516296E0,2.075057268E0
1.876505578E1,-4.595077634E-1,-6.414146423E0,1.110281706E0
1.877480599E1,-1.074697256E0,-5.978728294E0,1.221035957E0
1.878455620E1,-2.217360973E0,-5.807954788E0,1.519070864E0
1.879430641E1,-2.933617592E0,-6.073988438E0,1.404484630E0
1.880405672E1,-2.725052595E0,-6.727863789E0,1.114995718E0
1.881380693E1,-1.939211607E0,-7.268983364E0,5.347766876E-1
1.882355714E1,-1.059528828E0,-7.720807076E0,1.817646623E-1
1.883330735E1,-1.768242568E-3,-7.923520088E0,5.845778584E-1
1.884305756E1,1.228973269E0,-7.861407280E0,6.620900035E-1
1.885280776E1,1.252080083E0,-7.422364235E0,-7.133365870E-1
1.886255797E1,6.705254316E-1,-6.326287270E0,-2.896863699E0
1.887230818E1,2.274710238E-1,-4.396256447E0,-5.410136700E0
1.888205839E1,-3.233239651E-1,-1.578896999E0,-6.114742756E0
1.889180860E1,-3.187208474E-1,1.457028389E0,-4.350137711E0
1.890155891E1,5.528772473E-1,5.690299034E0,-7.005870342E-1
1.891130912E1,1.334657669E0,1.060858250E1,3.873198986E0
1.892105933E1,6.279635429E-1,1.495214081E1,6.210624695E0
1.893080954E1,-2.270332277E-1,1.815380478E1,4.906208992E0
1.894055974E1,-9.675513506E-1,2.101688385E1,2.397978306E0
1.895030995E1,-1.434638858E0,2.339745712E1,3.985476494E-2
1.896006016E1,-1.258453608E0,2.554544067E1,-8.037595749E-1
1.896981037E1,-1.292240620E0,2.721533203E1,5.496850014E-1
1.897956068E1,-1.684844017E0,2.822002029E1,3.860745668E0
1.898931089E1,-1.997694731E0,2.902409744E1,7.344223499E0
1.899906110E1,-1.346854448E0,2.857422638E1,1.088158703E1
1.900881131E1,1.934923530E-1,2.583374405E1,1.325051212E1
1.901856151E1,1.577276707E0,1.994500923E1,1.220213604E1
1.902831172E1,2.040347338E0,1.312470055E1,8.158581734E0
1.903806193E1,1.728888392E0,6.026031494E0,2.829475880E0
1.904781224E1,1.261019707E0,-8.607835770E-1,-1.472638965E0
1.905756245E1,8.186416030E-1,-6.828748703E0,-3.900735855E0
1.906731266E1,3.523956537E-1,-1.167409134E1,-4.555232525E0
1.907706287E1,2.309779823E-1,-1.523710442E1,-3.972398281E0
1.908681308E1,3.455860019E-1,-1.743451691E1,-2.979202509E0
1.909656329E1,4.338555038E-1,-1.857666779E1,-2.016025543E0
1.910631349E1,3.545306921E-1,-1.884125900E1,-1.356680155E0
1.911606370E1,2.333368808E-1,-1.767247581E1,-1.501705766E0
1.912581401E1,-1.246096641E-1,-1.575662231E1,-2.293316603E0
1.913556422E1,-6.677705646E-1,-1.378036022E1,-2.769091368E0
1.914531443E1,-6.643294096E-1,-1.173641682E1,-2.181683779E0
1.915506464E1,-3.952473998E-1,-1.018811035E1,-7.577667236E-1
1.916481485E1,-1.598703265E-1,-9.308648109E0,6.537004709E-1
1.917456506E1,-3.045779169E-1,-8.800893784E0,1.374221087E0
1.918431537E1,-8.898343444E-1,-8.654819489E0,1.126010418E0
1.919406558E1,-1.372138143E0,-8.545272827E0,5.346034765E-1
1.920381578E1,-1.503594398E0,-8.482100487E0,2.396086454E-1
1.921356599E1,-1.519698739E0,-8.527396202E0,1.514944434E-1
1.922331620E1,-1.312922359E0,-8.465694427E0,-2.156090140E-1
1.923306641E1,-7.991659641E-1,-8.456789017E0,-6.391212940E-1
1.924281662E1,-3.728809357E-1,-8.627038002E0,-4.390526116E-1
1.925256693E1,-7.540133595E-2,-8.909222603E0,9.944856167E-2
1.926231714E1,4.910740629E-2,-9.112388611E0,6.847006083E-1
1.927206735E1,-2.156032473E-1,-9.138902664E0,1.025671840E0
1.928181756E1,-4.272626638E-1,-9.108364105E0,9.684876204E-1
1.929156776E1,-4.819669127E-1,-8.997256279E0,9.243532419E-1
1.930131797E1,-1.255869567E-1,-8.810402870E0,7.575114369E-1
1.931106828E1,4.334661365E-1,-8.396963120E0,1.648668051E-1
1.932081849E1,9.317160249E-1,-7.783409119E0,-8.920069337E-1
1.933056870E1,1.129478812E0,-6.873613358E0,-2.057257414E0
1.934031891E1,9.140567183E-1,-5.213438034E0,-2.916722536E0
1.935006912E1,-1.928485930E-1,-2.245608807E0,-3.651017666E0
1.935981933E1,-1.477445602E0,1.344536781E0,-4.005737305E0
1.936956964E1,-1.707112074E0,5.125985146E0,-3.365384579E0
1.937931985E1,-4.444468617E-1,9.323124886E0,-1.064134121E0
1.938907006E1,2.358814240E0,1.375016594E1,2.785706758E0
1.939882026E1,4.268903255E0,1.766671371E1,5.736246586E0
1.940857047E1,3.963327646E0,2.074954224E1,4.929985046E0
1.941832068E1,2.130308390E0,2.325479889E1,3.333971977E0
1.942807099E1,-7.484872937E-1,2.529792213E1,2.319886923E0
1.943782120E1,-3.372625113E0,2.667297173E1,2.398473978E0
1.944757141E1,-4.137337685E0,2.741949844E1,2.922093868E0
1.945732162E1,-3.977856636E0,2.653434563E1,5.531863213E0
1.946707183E1,-3.158094883E0,2.481143379E1,8.247673035E0
1.947682204E1,-1.459128618E0,2.255580711E1,1.056606102E1
1.948657235E1,3.219464123E-1,1.908569336E1,1.060713768E1
1.949632256E1,1.689024091E0,1.466855431E1,7.752239227E0
1.950607276E1,2.140349865E0,1.033389378E1,4.096277714E0
1.951582297E1,1.685209155E0,6.316220284E0,9.570831060E-1
1.952557318E1,1.203190088E0,2.264587402E0,-8.574662805E-1
1.953532349E1,9.335970879E-1,-1.790353775E0,-1.754322767E0
1.954507370E1,8.086023331E-1,-5.407290459E0,-2.327686310E0
1.955482391E1,7.707550526E-1,-8.503029823E0,-2.016722441E0
1.956457412E1,6.711664200E-1,-1.082781315E1,-1.254422426E0
1.957432433E1,5.588387251E-1,-1.255656338E1,-1.059613943E0
1.958407454E1,4.383194447E-1,-1.373878479E1,-1.316608906E0
1.959382485E1,1.641547829E-1,-1.453550529E1,-1.788228273E0
1.960357506E1,-3.775954247E-2,-1.501422787E1,-2.446665764E0
1.961332526E1,-2.134958208E-1,-1.509215260E1,-2.972483158E0
1.962307547E1,-1.740182638E-1,-1.435982132E1,-3.036030293E0
1.963282568E1,1.210488528E-1,-1.320610809E1,-2.752628803E0
1.964257599E1,2.307844013E-1,-1.232898712E1,-2.526642323E0
1.965232620E1,3.146030903E-1,-1.182530785E1,-2.059844971E0
1.966207641E1,5.557722449E-1,-1.095169449E1,-1.080622077E0
1.967182662E1,8.102575541E-1,-9.971665382E0,4.978604317E-1
1.968157683E1,6.886326075E-1,-9.178997040E0,9.679707289E-1
1.969132704E1,5.618989468E-1,-8.630992889E0,1.075547934E0
1.970107735E1,5.030824542E-1,-8.399433136E0,1.258930564E0
1.971082756E1,4.816049933E-1,-8.238252640E0,1.060511589E0
1.972057776E1,3.008745313E-1,-8.133503914E0,6.272232533E-1
1.973032797E1,7.806297392E-2,-8.166347504E0,3.194402456E-1
1.974007818E1,-1.191628948E-1,-8.410335541E0,1.561481953E-1
1.974982849E1,-4.478422403E-1,-8.635385513E0,-3.902959228E-1
1.975957870E1,-4.973040521E-1,-8.432780266E0,-8.955273032E-1
1.976932891E1,-6.796942949E-1,-8.206995964E0,-1.018950820E0
1.977907912E1,-7.514170408E-1,-7.920675278E0,-8.510133028E-1
1.978882933E1,-4.432643354E-1,-7.531446457E0,-1.709287167E-1
1.979857964E1,2.210426629E-1,-6.499007225E0,-8.686545491E-1
1.980832985E1,9.638589621E-1,-5.270632267E0,-1.311794281E0
1.981808006E1,1.307978511E0,-3.777601719E0,-1.472616673E0
1.982783026E1,6.161288023E-1,-2.296895981E0,-1.413407564E0
1.983758047E1,-6.591763496E-1,-7.054710388E-1,-1.670836926E0
1.984733078E1,-1.463657141E0,1.526426315E0,-1.894796610E0
1.985708099E1,-2.156552553E0,4.670582771E0,-1.690025806E0
1.986683120E1,-2.559041262E0,7.884177208E0,-1.376559377E0
1.987658141E1,-2.197319031E0,1.128640461E1,-6.314398646E-1
1.988633162E1,-1.567556143E0,1.480062103E1,1.535741091E-1
1.989608193E1,-4.709768891E-1,1.839233398E1,8.353742361E-1
1.990583214E1,1.043886542E-1,2.241853333E1,2.060360432E0
1.991558235E1,-3.507796526E-1,2.603344727E1,3.015889168E0
1.992533256E1,-1.364987493E0,2.813755417E1,4.323746681E0
1.993508276E1,-2.593290567E0,2.903662300E1,5.574122429E0
1.994483308E1,-3.336350918E0,2.876552963E1,7.085260391E0
1.995458329E1,-3.610238314E0,2.732388306E1,8.231629372E0
1.996433349E1,-3.477478027E0,2.463387299E1,8.828392029E0
1.997408370E1,-2.680394888E0,2.045476151E1,8.388710022E0
1.998383401E1,-1.477077246E0,1.523629951E1,6.374724865E0
1.999358422E1,-5.286729932E-1,9.912312508E0,4.133056164E0
2.000333443E1,-1.496568322E-1,5.212865829E0,2.617253304E0
2.001308464E1,1.120560020E-1,1.059216499E0,1.799452543E0
