"Time (s)","Linear Acceleration x (m/s^2)","Linear Acceleration y (m/s^2)","Linear Acceleration z (m/s^2)"
3.130614700E-2,0.000000000E0,0.000000000E0,0.000000000E0
4.105635500E-2,2.591252327E-3,-5.784797668E-2,-1.381659508E-1
5.080666800E-2,-8.060282469E-2,2.532005310E-3,-1.974664927E-1
6.055687600E-2,-1.442638487E-1,1.005039215E-1,-2.629286051E-1
7.030708400E-2,-2.674782872E-1,5.971717834E-2,-3.010717630E-1
8.005729300E-2,-3.310798705E-1,-6.509113312E-2,-3.340612650E-1
8.980760500E-2,-3.617110252E-1,-1.450834274E-1,-2.949877977E-1
9.955781400E-2,-2.919701338E-1,-9.901428223E-2,-1.355068684E-1
1.093080220E-1,-7.826656848E-2,1.018619537E-2,1.194705963E-1
1.190582300E-1,-1.407181472E-2,-8.549880981E-2,9.398698807E-2
1.288084390E-1,-1.981047392E-1,-2.148065567E-1,-1.406804323E-1
1.385587510E-1,-3.032054603E-1,-1.352691650E-1,-3.414816856E-1
1.483089590E-1,-1.330824047E-1,1.432542801E-1,-3.992233872E-1
1.580591680E-1,1.280595064E-1,2.167396545E-1,-4.310664535E-1
1.678093760E-1,2.132719457E-1,1.167917252E-1,-2.447904348E-1
1.775595840E-1,1.103927642E-1,6.804275513E-2,5.987143517E-2
1.873097930E-1,2.359008491E-1,1.301813126E-1,2.415118217E-1
1.970600010E-1,2.883103788E-1,1.279134750E-1,4.236893654E-1
2.068103140E-1,1.644563526E-1,3.500556946E-2,6.351233721E-1
2.165605220E-1,1.776598394E-1,3.759956360E-2,5.684549809E-1
2.263107300E-1,2.190527618E-1,3.322792053E-2,4.500828981E-1
2.360609390E-1,1.055334806E-1,-1.949024200E-2,5.366762877E-1
2.458111470E-1,-8.233916014E-3,1.583957672E-2,7.085795403E-1
2.555613550E-1,-1.116327383E-2,8.308124542E-2,6.567761898E-1
2.653115640E-1,1.681941748E-2,1.266450882E-1,3.240765333E-1
2.750618760E-1,-7.360929251E-2,9.971237183E-2,-4.338622093E-2
2.848120840E-1,-2.495183945E-1,1.502370834E-1,-2.581672668E-1
2.945622930E-1,-2.515376508E-1,2.133855820E-1,-3.223500252E-1
3.043125010E-1,-8.076731861E-2,2.934436798E-1,-1.207834482E-1
3.140627090E-1,1.267944723E-1,2.743558884E-1,-1.928687096E-3
3.238129180E-1,3.704132512E-2,1.591930389E-1,3.273189068E-2
3.335631260E-1,-1.419670284E-1,6.660747528E-2,-1.024416685E-1
3.433133340E-1,-1.857581139E-1,1.164140701E-1,-2.149769068E-1
3.530635430E-1,-6.506372243E-2,1.696739197E-1,-1.908832788E-1
3.628137510E-1,7.681252807E-2,2.007799149E-1,-2.755832672E-1
3.725639590E-1,2.030570209E-1,1.663722992E-1,-5.211408138E-1
3.823142720E-1,4.403675199E-1,1.707992554E-1,-6.480195522E-1
3.920644800E-1,5.851351023E-1,1.034450531E-2,-6.597809792E-1
4.018146890E-1,4.417210817E-1,-2.061748505E-1,-8.199474216E-1
4.115648970E-1,3.022955060E-1,-2.818422318E-1,-9.743958712E-1
4.213151050E-1,3.093990088E-1,-3.630886078E-1,-7.409163117E-1
4.310653140E-1,4.768192470E-1,-5.084962845E-1,-4.790201187E-1
4.408155220E-1,3.776598573E-1,-7.259721756E-1,-5.358120799E-1
4.505657300E-1,1.490213126E-1,-8.456020355E-1,-6.572486162E-1
4.603159390E-1,1.527397484E-1,-7.736234665E-1,-7.889828086E-1
4.700661470E-1,1.729077399E-1,-6.170015335E-1,-8.193243742E-1
4.798163550E-1,-5.435125530E-2,-4.052066803E-1,-1.038586259E0
4.895665640E-1,-3.820966482E-1,-2.188177109E-1,-1.084838986E0
4.993167720E-1,-6.800180674E-1,-1.744174957E-2,-9.743776321E-1
5.090669800E-1,-6.460343599E-1,3.298177719E-1,-8.975311518E-1
5.188171890E-1,-4.806942344E-1,6.018638611E-1,-4.674857557E-1
5.285673970E-1,-5.114113092E-1,5.771598816E-1,3.107523918E-2
5.383176050E-1,-5.838008523E-1,5.618972778E-1,1.719387174E-1
5.480678140E-1,-4.100342989E-1,5.726118088E-1,3.914919496E-1
5.578180220E-1,-8.803292364E-2,6.443300247E-1,7.133551836E-1
5.675682300E-1,2.733132839E-1,7.879657745E-1,1.089392662E0
5.773184390E-1,4.197110534E-1,8.144655228E-1,1.068178058E0
5.870686470E-1,1.328816563E-1,5.424890518E-1,8.220821023E-1
5.968188550E-1,-3.328915834E-1,3.154916763E-1,6.863175631E-1
6.065690640E-1,-7.883000970E-1,1.560888290E-1,5.633693337E-1
6.163192720E-1,-1.039001822E0,-4.050540924E-2,2.913081050E-1
6.260694800E-1,-1.174893022E0,-1.985797882E-1,6.553351879E-3
6.358196890E-1,-1.204190731E0,-3.424730301E-1,-1.170151830E-1
6.455698970E-1,-1.213904738E0,-4.679546356E-1,-2.464008331E-2
6.553201050E-1,-1.299361944E0,-6.036643982E-1,1.160895824E-1
6.650703140E-1,-1.233515859E0,-5.040273666E-1,-2.243142426E-1
6.748205220E-1,-1.150309324E0,-2.759370804E-1,-4.092417955E-1
6.845707300E-1,-9.911229014E-1,4.819774628E-2,-3.005523086E-1
6.943209390E-1,-7.322748899E-1,4.269676208E-1,-2.013611794E-1
7.040711470E-1,-4.768142700E-1,6.262264252E-1,-1.277225614E-1
7.138213550E-1,-5.222906470E-1,6.179122925E-1,-1.334673166E-1
7.235714590E-1,-6.479123831E-1,6.761379242E-1,4.397594929E-2
7.333216680E-1,-7.213165760E-1,6.961479187E-1,3.908762932E-1
7.430718760E-1,-7.274708748E-1,5.887174606E-1,4.669924974E-1
7.528220840E-1,-7.342615128E-1,4.377927780E-1,6.182765961E-1
7.625722930E-1,-6.689896584E-1,3.687276840E-1,1.060219407E0
7.723225010E-1,-4.562001526E-1,4.512634277E-1,1.111480474E0
7.820727090E-1,-3.132938147E-1,5.514221191E-1,9.391723275E-1
7.918229180E-1,-2.054351270E-1,4.897851944E-1,5.935276151E-1
8.015731260E-1,-1.787904650E-1,4.647035599E-1,4.140371680E-1
8.113233340E-1,-2.840638161E-1,4.826202393E-1,6.019423604E-1
8.210735430E-1,-3.917745650E-1,4.527435303E-1,9.694339633E-1
8.308236470E-1,-5.027389526E-1,2.686462402E-1,1.517360091E0
8.405738550E-1,-6.803053617E-1,-1.063947678E-1,2.115525723E0
8.503240640E-1,-7.659822106E-1,-4.904088974E-1,2.153434992E0
8.600742720E-1,-6.637235284E-1,-7.264308929E-1,1.463169575E0
8.698244800E-1,-2.688820064E-1,-6.543798447E-1,2.002260685E-1
8.795746890E-1,2.350442410E-1,-4.236879349E-1,-9.153554440E-1
8.893248970E-1,7.154498100E-1,-4.971685410E-1,-1.684422255E0
8.990751050E-1,1.151739001E0,-7.105674744E-1,-2.286381483E0
9.088252090E-1,1.492506623E0,-8.827219009E-1,-2.618408442E0
9.185754180E-1,1.597249627E0,-1.092498779E0,-2.706705809E0
9.283256260E-1,1.731091738E0,-1.320850372E0,-2.520268679E0
9.380758340E-1,1.667435765E0,-1.612998962E0,-2.063607216E0
9.478260430E-1,1.495005608E0,-1.661167145E0,-7.113531828E-1
9.575762510E-1,1.171662688E0,-1.468323708E0,6.816343069E-1
9.673263550E-1,6.821612120E-1,-1.332958221E0,7.107793093E-1
9.770765640E-1,2.006251961E-1,-1.261320114E0,-1.575094461E-1
9.868267720E-1,1.092531458E-1,-1.006036758E0,-1.065009832E0
9.965769800E-1,8.545058966E-2,-7.722091675E-1,-2.059146404E0
1.006327189E0,4.582177699E-1,-6.256370544E-1,-2.924455643E0
1.016077397E0,8.473664522E-1,-1.036931992E0,-3.142191887E0
1.025827501E0,9.128568172E-1,-1.820793152E0,-2.707234859E0
1.035577709E0,7.444404960E-1,-2.125382423E0,-2.637726784E0
1.045327918E0,3.985779285E-1,-1.910305977E0,-2.075786352E0
1.055078126E0,6.457207203E-1,-1.332328796E0,7.642263174E-2
1.064828334E0,1.215869546E0,-9.353599548E-1,2.436946392E0
1.074578439E0,1.286908388E0,-1.132536888E0,3.617001772E0
1.084328647E0,1.079495907E0,-1.740571022E0,2.576603174E0
1.094078855E0,6.223997474E-1,-2.170233727E0,9.761505723E-1
1.103829064E0,6.738703251E-1,-2.380712986E0,1.684743017E-1
1.113579272E0,6.264551878E-1,-3.085385799E0,6.963562965E-1
1.123329376E0,2.781521082E-1,-4.206148148E0,1.790791512E0
1.133079584E0,-3.595288098E-1,-5.336184025E0,3.018244982E0
1.142829793E0,-6.171172261E-1,-5.427278519E0,2.775125504E0
1.152580001E0,-8.756229877E-1,-5.199965954E0,1.236624122E0
1.162330105E0,-1.278287292E0,-4.981807232E0,1.188676879E-1
1.172080314E0,-1.424421549E0,-4.912712097E0,-2.839568630E-2
1.181830522E0,-1.105404139E0,-4.671316147E0,-2.241416126E-1
1.191580730E0,-3.713237345E-1,-4.572534084E0,-8.523770571E-1
1.201330834E0,1.067648828E-1,-4.508501053E0,-1.342189074E0
1.211081043E0,1.574535966E-1,-4.428880692E0,-1.095951319E0
1.220831251E0,-2.982171774E-1,-4.554308891E0,1.207521111E-1
1.230581459E0,-1.149571419E0,-4.349006653E0,8.625047207E-1
1.240331564E0,-1.615858674E0,-3.834427357E0,-5.293620825E-1
1.250081772E0,-1.774152756E0,-3.430597782E0,-2.630789995E0
1.259831980E0,-1.828860164E0,-2.735233784E0,-4.093577385E0
1.269582084E0,-1.666745067E0,-2.151730061E0,-4.215119362E0
1.279332293E0,-4.922885299E-1,-1.461232662E0,-3.213057280E0
1.289082501E0,1.368486166E0,-6.156206131E-1,-2.208382845E0
1.298832709E0,2.587396622E0,-8.898067474E-2,-6.520429254E-1
1.308582814E0,2.026966572E0,-6.165399551E-1,1.816087008E0
1.318333022E0,6.628366709E-1,-1.284544945E0,2.220414400E0
1.328083230E0,-4.747407734E-1,-1.027568817E0,1.453904629E0
1.337833334E0,-4.156752229E-1,-2.753162384E-1,7.428410053E-1
1.347583543E0,-1.702770591E-1,9.299879074E-1,2.141005397E-1
1.357333751E0,2.341130972E-1,2.591275215E0,-1.573688269E0
1.367083959E0,7.923834920E-1,3.571934700E0,-3.550761700E0
1.376834064E0,2.280334830E-1,3.138929367E0,-2.668293476E0
1.386584272E0,-1.026964426E0,2.220153809E0,3.364520073E-1
1.396334480E0,-8.288378716E-1,1.367763519E0,3.210152388E0
1.406084584E0,-5.345129371E-1,8.948659897E-1,5.358394623E0
1.415834793E0,-4.765571952E-1,5.283193588E-1,6.602280140E0
1.425584897E0,-2.072877884E-1,4.580383301E-1,6.113953114E0
1.435335105E0,-1.507083178E-1,4.507102966E-1,1.431829453E0
1.445085314E0,7.532470226E-1,1.991827011E0,-2.849957466E0
1.454835522E0,6.819924116E-1,2.798705101E0,-3.105908394E0
1.464585626E0,-4.322490096E-1,1.731746674E0,-2.279460430E0
1.474335834E0,-1.492455006E0,1.145292282E0,-4.349908233E-1
1.484085939E0,-1.701730847E0,1.074369431E0,8.965182304E-1
1.493836147E0,-1.862858534E0,8.123178482E-1,1.068377495E0
1.503586355E0,-2.232098579E0,1.236381531E-1,1.692646623E0
1.513336459E0,-2.558144808E0,-1.527526855E0,2.316801071E0
1.523086668E0,-2.343859673E0,-2.613715649E0,1.576502323E0
1.532836876E0,-1.073965430E0,-1.949287891E0,-1.467727423E-1
1.542586980E0,1.703847051E-1,-1.055258751E0,-1.837866545E0
1.552337189E0,1.791934133E0,-2.382373810E-2,-2.997588396E0
1.562087397E0,3.759897232E0,1.130519867E0,-3.247824907E0
1.571837501E0,5.711032391E0,2.342204094E0,-3.279768944E0
1.581587709E0,5.279922009E0,2.519835472E0,-1.865240693E0
1.591337814E0,2.303778648E0,1.947880745E0,1.521293402E0
1.601088022E0,-1.052007079E-1,1.418007851E0,4.426596165E0
1.610838230E0,-6.389112473E-1,8.518085480E-1,5.506699085E0
1.620588334E0,4.824200273E-1,5.726251602E-1,6.817993164E0
1.630338439E0,1.322842360E0,6.047973633E-1,7.190922260E0
1.640088647E0,1.394912004E0,9.138326645E-1,3.199805737E0
1.649838855E0,1.079712629E0,2.130064964E0,-3.406975269E0
1.659588959E0,2.755196989E-1,3.488133430E0,-7.141310215E0
1.669339168E0,-1.607845068E0,3.181730270E0,-6.192409039E0
1.679089376E0,-4.501299381E0,1.544917107E0,-2.475924253E0
1.688839480E0,-4.707627296E0,7.220344543E-1,9.702886343E-1
1.698589689E0,-2.360094786E0,9.048156738E-1,2.553049564E0
1.708339793E0,1.382575929E-1,1.339918137E0,3.316454411E0
1.718090001E0,2.530644178E0,1.329091072E0,4.138875008E0
1.727840209E0,3.021027565E0,3.585968018E-1,3.554348230E0
1.737590314E0,1.353754163E0,-1.748285294E-1,8.950030804E-2
1.747340522E0,-1.736562729E0,2.528219223E-1,-3.724539757E0
1.757090626E0,-5.348605633E0,-6.951417923E-1,-3.436692953E0
1.766840834E0,-5.174114704E0,-2.225414276E0,-6.468877792E-1
1.776590939E0,-2.096130610E0,-2.340144157E0,1.690742731E0
1.786341147E0,7.133740187E-1,-1.446620941E0,3.818690777E0
1.796091355E0,4.620894909E0,-2.425603867E-1,6.773902416E0
1.805841459E0,6.296167850E0,-5.243587494E-2,5.669459343E0
1.815591668E0,3.650409937E0,-1.067523003E0,2.004392385E0
1.825341772E0,-9.416157007E-1,-5.045013428E-1,-5.839574337E-1
1.835091980E0,-2.989699602E0,4.817695618E-1,-6.551209688E-1
1.844842084E0,-2.043982506E0,5.851974487E-1,-9.070118666E-1
1.854592293E0,-9.865261316E-1,1.155133247E0,-1.846469402E0
1.864342397E0,-9.764620066E-1,2.279068947E0,-1.528467298E0
1.874092605E0,-6.729260683E-1,3.792930603E0,-1.319293976E-1
1.883842709E0,-1.495755911E-1,4.047026634E0,1.031655073E0
1.893592918E0,8.121559024E-1,4.332157135E0,-2.683758736E-3
1.903343022E0,3.091294765E0,5.549631119E0,-1.492971897E0
1.913093230E0,4.465482712E0,6.473277092E0,-2.661954880E0
1.922843334E0,3.658632755E0,5.558844566E0,-4.438904762E0
1.932593543E0,7.953827381E-1,5.061607361E0,-5.897621632E0
1.942343751E0,-1.816590548E0,5.645115852E0,-4.143880367E0
1.952093855E0,-2.659048557E0,6.416531563E0,5.393610001E-1
1.961843959E0,-2.507622004E0,7.816621780E0,6.607662201E0
1.971594168E0,-7.033083439E-1,1.005808544E1,8.936281204E0
1.981344272E0,2.498177052E0,1.234387207E1,5.780444145E0
1.991094480E0,4.172764778E0,1.297705746E1,1.697486997E0
2.000844584E0,3.724976063E0,1.209097385E1,-1.478281975E0
2.010594793E0,2.075213194E0,1.032701206E1,-4.323931694E0
2.020344897E0,1.325272560E0,8.773418427E0,-5.564067841E0
2.030095105E0,1.425973654E0,8.300992966E0,-5.436426640E0
2.039845209E0,4.641528726E-1,7.907938957E0,-4.314422607E0
2.049595418E0,-1.558064342E0,6.810346603E0,-1.601873636E0
2.059345522E0,-2.037933826E0,6.113604546E0,2.845418930E0
2.069095730E0,-1.212949514E0,5.949061394E0,5.272331715E0
2.078845834E0,-2.453428209E-1,6.129485130E0,5.677158356E0
2.088596043E0,1.202886939E0,6.088068962E0,3.966962099E0
2.098346043E0,1.712957025E0,5.848861694E0,1.390581846E0
2.108096355E0,1.865563273E0,5.546787262E0,-4.913353920E-1
2.117846459E0,2.310248613E0,5.493885994E0,-1.350764871E0
2.127596668E0,1.920469642E0,5.258635521E0,-2.007158279E0
2.137346772E0,1.185889244E0,4.748037338E0,-2.086658001E0
2.147096980E0,1.364202976E0,3.927511215E0,-1.046284199E0
2.156847084E0,1.086679339E0,3.124463081E0,1.193049073E0
2.166597189E0,-6.113549471E-1,2.134764671E0,2.112686634E0
2.176347397E0,-2.752530575E0,1.331776619E0,1.811766505E0
2.186097501E0,-2.748881578E0,1.029017448E0,1.676002979E0
2.195847709E0,-1.939533114E0,6.143951416E-1,3.773253441E0
2.205597814E0,-2.904761136E-1,7.131872177E-1,5.539287567E0
2.215348022E0,1.612170339E0,1.065270424E0,5.967766762E0
2.225098126E0,1.629541874E0,1.305619240E0,5.420997620E0
2.234848334E0,1.286692142E0,1.343101501E0,4.045650005E0
2.244598439E0,1.556624889E0,1.403497696E0,9.809028506E-1
2.254348543E0,7.904847264E-1,1.422462463E0,-2.933758259E0
2.264098751E0,-1.690027714E0,1.285722733E0,-5.947545052E0
2.273848855E0,-3.658282518E0,1.082626343E0,-7.391060352E0
2.283599064E0,-3.928977966E0,1.089337349E0,-6.116194725E0
2.293349168E0,-2.315742731E0,7.264432907E-1,-2.605036736E0
2.303099272E0,-1.509412527E0,4.787521362E-1,6.465643644E-1
2.312849480E0,-1.011717319E-2,2.097625732E-1,3.698139906E0
2.322599584E0,2.143155098E0,1.760196686E-2,4.723084927E0
2.332349793E0,3.115874529E0,3.316659927E-1,4.091702461E0
2.342099897E0,2.746160030E0,6.580629349E-1,1.651817918E0
2.351850105E0,1.795902014E0,4.793558121E-1,-6.874269843E-1
2.361600209E0,4.806763232E-1,3.453845978E-1,-2.806308985E0
2.371350314E0,-4.935281575E-1,7.496700287E-1,-4.683475494E0
2.381100522E0,-2.270428658E0,6.128940582E-1,-3.937116623E0
2.390850626E0,-3.770222902E0,-2.081890106E-1,-6.047478318E-1
2.400600834E0,-3.360797405E0,-4.783992767E-1,2.148117542E0
2.410350939E0,-2.088385582E0,-8.757715225E-1,3.681543589E0
2.420101043E0,6.635880470E-2,-8.282737732E-1,4.215023994E0
2.429851251E0,1.842334747E0,-1.100254059E-2,4.164658546E0
2.439601355E0,1.663856626E0,3.098554611E-1,2.586625099E0
2.449351459E0,1.338053465E0,3.632364273E-1,9.015967250E-1
2.459101668E0,1.381479025E0,8.441162109E-1,-1.311252117E-1
2.468851772E0,1.017107487E0,1.515739441E0,-7.553180456E-1
2.478601876E0,5.720279813E-1,2.047561646E0,-1.306191206E0
2.488352084E0,6.861582398E-1,2.077846527E0,-1.060346007E0
2.498102189E0,6.509075761E-1,2.034339905E0,1.472004652E-1
2.507852397E0,1.218633056E0,2.242691040E0,7.267446518E-1
2.517602501E0,1.924103379E0,2.840867043E0,1.502878547E0
2.527352605E0,1.738239408E0,3.359583855E0,1.663815975E0
2.537102814E0,8.867167234E-1,3.414049149E0,7.040668130E-1
2.546852918E0,8.552823961E-2,3.248433113E0,-8.181118369E-1
2.556603022E0,-7.198291421E-1,2.910641670E0,-1.993828297E0
2.566353230E0,-1.462659836E0,2.402304649E0,-2.047244072E0
2.576103334E0,-2.172546625E0,1.737797737E0,-1.090078354E0
2.585853439E0,-1.868908882E0,7.469186783E-1,4.339953661E-1
2.595603647E0,1.007665098E-1,4.069328308E-1,2.001832008E0
2.605353751E0,2.238015890E0,5.958147049E-1,2.685095072E0
2.615103855E0,2.600227118E0,8.812294006E-1,1.933325648E0
2.624854064E0,2.034142256E0,7.996082306E-1,-4.160189629E-1
2.634604168E0,1.318984628E0,3.434724808E-1,-2.807731628E0
2.644354272E0,5.322011113E-1,-1.954460144E-1,-3.230980635E0
2.654104480E0,3.674376011E-2,-9.390726089E-1,-2.370130301E0
2.663854584E0,1.900263429E-1,-1.977646828E0,-1.361460686E0
2.673604689E0,3.599332869E-1,-2.678425789E0,-2.798672020E-1
2.683354897E0,3.994132280E-1,-3.316678047E0,2.998101711E-1
2.693105001E0,1.226308271E-1,-4.140389442E0,8.305719495E-1
2.702855105E0,2.687414587E-1,-4.488580704E0,1.476417303E0
2.712605314E0,4.554764628E-1,-4.613388062E0,1.140461445E0
2.722355418E0,-3.401560709E-2,-5.075899124E0,-2.660425901E-1
2.732105522E0,-6.366610527E-1,-5.388737679E0,-1.114260674E0
2.741855730E0,-1.102818608E0,-5.598193169E0,-1.388000250E0
2.751605834E0,-1.410301566E0,-6.098581314E0,-1.266906500E0
2.761355939E0,-1.378419280E0,-6.803176880E0,-6.988847256E-1
2.771106147E0,-8.385025859E-1,-7.467544079E0,-4.903361201E-1
2.780856251E0,-2.498932630E-1,-8.022041321E0,-4.392313957E-1
2.790606355E0,4.261203110E-1,-8.385353088E0,-6.588479280E-1
2.800356459E0,1.039068222E0,-8.398128510E0,-9.395407438E-1
2.810106668E0,1.554922462E0,-8.514939308E0,-8.896868229E-1
2.819856772E0,1.503985047E0,-8.738430023E0,-1.165746212E0
2.829606876E0,1.303356886E0,-8.834989548E0,-1.889731407E0
2.839357084E0,8.754227757E-1,-8.874259949E0,-2.842749119E0
2.849107189E0,-8.938212693E-2,-9.359676361E0,-3.254529238E0
2.858857293E0,-8.025224805E-1,-9.593907356E0,-2.914006233E0
2.868607397E0,-8.969404697E-1,-9.197068214E0,-2.373759985E0
2.878357605E0,-1.104202390E0,-8.609948158E0,-2.284932137E0
2.888107709E0,-1.196536064E0,-7.500573635E0,-2.342515469E0
2.897857814E0,-1.121969342E0,-6.078114033E0,-1.529822588E0
2.907608022E0,-1.014709115E0,-4.742323875E0,-5.124836564E-1
2.917358126E0,-5.575410724E-1,-3.349381447E0,-4.632463753E-1
2.927108230E0,-1.611253917E-1,-1.954083443E0,-6.061779261E-1
2.936858334E0,-2.559803724E-1,-8.000669479E-1,-9.622937441E-1
2.946608543E0,-8.429411054E-1,4.079103470E-1,-1.059460878E0
2.956358647E0,-1.628740311E0,1.245316505E0,-1.205891848E0
2.966108751E0,-1.998216271E0,1.984974861E0,-2.527537823E0
2.975858855E0,-1.774108052E0,3.129514694E0,-3.902390957E0
2.985609064E0,-5.653601885E-1,4.441864014E0,-3.216060162E0
2.995359168E0,1.080002427E0,5.518581390E0,-1.995051384E0
3.005109272E0,2.852784157E0,6.040098190E0,-2.636032999E-1
3.014859376E0,2.619669199E0,5.522313118E0,2.754751205E0
3.024609584E0,1.720621705E0,4.262563705E0,5.172940731E0
3.034359689E0,6.396274567E-1,2.710763931E0,6.065826416E0
3.044109793E0,-2.579505444E-1,8.181800842E-1,5.307796955E0
3.053859897E0,-4.256472588E-1,-6.827602386E-1,3.667610884E0
3.063610105E0,-6.185936928E-1,-2.223228455E0,1.446147203E0
3.073360209E0,-9.880658388E-1,-3.437293053E0,-1.036633134E0
3.083110314E0,-1.158313036E0,-4.113895416E0,-2.814718962E0
3.092860418E0,-1.164995313E0,-4.171985626E0,-3.441064119E0
3.102610626E0,-7.658687830E-1,-3.630797863E0,-3.240415812E0
3.112360730E0,-2.425876856E-1,-3.110305309E0,-2.591418028E0
3.122110834E0,-2.106991410E-1,-3.045063972E0,-2.556605816E0
3.131860939E0,-2.836997807E-1,-3.033299446E0,-2.997110844E0
3.141611043E0,-3.869073391E-1,-2.752849579E0,-2.705574512E0
3.151361251E0,-2.096203566E-1,-2.173283577E0,-2.265002251E0
3.161111355E0,-1.011374593E-1,-1.194918633E0,-1.339578271E0
3.170861459E0,1.790681481E-2,2.266483307E-1,-4.561244845E-1
3.180611564E0,2.228716314E-1,1.226637840E0,2.452477515E-1
3.190361668E0,3.434267640E-1,1.887501717E0,9.428772926E-1
3.200111876E0,7.827569842E-1,2.055216789E0,1.168847203E0
3.209861980E0,1.035720110E0,2.012600899E0,1.192700982E0
3.219612084E0,1.062308431E0,1.760208130E0,1.035902500E0
3.229362189E0,1.005005360E0,1.158060074E0,1.280176163E0
3.239112293E0,9.308345318E-1,9.087123871E-1,2.525659561E0
3.248862501E0,7.078924179E-1,9.896488190E-1,3.127403021E0
3.258612605E0,1.471481025E-1,8.153467178E-1,2.265534878E0
3.268362709E0,-5.663173199E-1,6.012144089E-1,7.594578266E-1
3.278112814E0,-9.155333638E-1,3.807373047E-1,-3.527021408E-1
3.287862918E0,-9.146351814E-1,7.762432098E-2,-8.645944595E-1
3.297613126E0,-6.340299249E-1,-4.390687943E-1,-9.806056023E-1
3.307363230E0,-1.775929928E-1,-9.373588562E-1,-7.468166351E-1
3.317113334E0,4.991317391E-1,-1.088204384E0,-6.205855012E-1
3.326863439E0,1.071944118E0,-1.226754189E0,-5.004978180E-1
3.336613543E0,1.125967264E0,-1.312637329E0,-5.290388465E-1
3.346363647E0,8.440638185E-1,-1.425028801E0,-1.065789461E0
3.356113855E0,6.923171282E-1,-1.158586502E0,-2.016306400E0
3.365863959E0,7.590950727E-1,-6.576986313E-1,-2.603625059E0
3.375614064E0,9.234713316E-1,-3.880176544E-1,-2.655479670E0
3.385364168E0,1.071235061E0,-1.815452576E-1,-2.578739643E0
3.395114272E0,8.849273920E-1,-1.974611282E-1,-2.033755779E0
3.404864376E0,4.786682129E-1,-4.442520142E-1,-9.853566289E-1
3.414614480E0,1.150474027E-1,-8.233547211E-1,-1.660609841E-1
3.424364689E0,-1.712934524E-1,-1.088824272E0,2.410572618E-1
3.434114793E0,-2.764746547E-1,-1.377241135E0,-1.629293263E-1
3.443864897E0,-1.587780416E-1,-1.387908936E0,-1.162621140E0
3.453615001E0,4.774059355E-2,-1.421893120E0,-1.289557815E0
3.463365105E0,7.871735692E-1,-1.202049255E0,-6.966983676E-1
3.473115209E0,1.056913018E0,-1.667224884E0,1.294682860E0
3.482865418E0,1.196600795E0,-2.114533424E0,2.700804472E0
3.492615522E0,1.763782501E0,-1.911696434E0,2.731040716E0
3.502365626E0,1.957870722E0,-1.527996063E0,1.796748996E0
3.512115730E0,1.119637370E0,-1.569725037E0,-5.897407234E-2
3.521865834E0,-1.464074850E-2,-2.011580944E0,-2.526207924E0
3.531615939E0,-9.636424780E-1,-3.033991337E0,-3.722532034E0
3.541366043E0,-1.608287811E0,-3.872316360E0,-2.816295147E0
3.551116251E0,-1.624042630E0,-4.257702827E0,-1.902769923E0
3.560866355E0,-1.652324796E0,-4.883809090E0,-9.565942883E-1
3.570616459E0,-1.417994022E0,-5.566877365E0,1.124616623E0
3.580366564E0,-6.726973057E-1,-5.514533997E0,2.259493351E0
3.590116668E0,4.481556416E-1,-5.215043068E0,2.291889668E0
3.599866772E0,1.139092326E0,-4.751679897E0,1.363621950E0
3.609616876E0,1.527874470E0,-4.217280388E0,3.021336198E-1
3.619366980E0,1.282632351E0,-4.304144859E0,-5.542817116E-1
3.629117084E0,1.643977165E-1,-4.574416161E0,-1.193691254E0
3.638867293E0,-1.069303632E0,-4.464917183E0,-1.385348201E0
3.648617397E0,-1.540101409E0,-4.272717476E0,-7.646726370E-1
3.658367397E0,-1.215088725E0,-4.198306084E0,-6.223508716E-2
3.668117605E0,-1.040182948E0,-4.212847710E0,8.933775425E-1
3.677867709E0,-5.378308296E-1,-3.955672264E0,1.653752208E0
3.687617814E0,2.619130015E-1,-3.398396969E0,9.713529944E-1
3.697367918E0,3.980996609E-1,-2.830216885E0,-6.523044705E-1
3.707118022E0,3.156930208E-1,-2.537517548E0,-2.151534319E0
3.716868126E0,4.605203271E-1,-2.085234642E0,-2.662864447E0
3.726618230E0,8.045485020E-1,-1.750433445E0,-1.752718925E0
3.736368334E0,1.235355377E0,-1.666345119E0,-9.767418504E-1
3.746118543E0,8.411000371E-1,-1.978405952E0,7.147845030E-1
3.755868647E0,-9.850161076E-1,-2.699008942E0,3.395012140E0
3.765618751E0,-2.208841085E0,-3.636683464E0,5.158125401E0
3.775368855E0,-5.631485209E-2,-1.207156181E0,2.600282907E0
3.785118959E0,1.519098997E0,5.750637054E-1,-4.049407244E-1
3.794869064E0,1.425425768E0,6.688213348E-1,-4.317196369E0
3.804619168E0,3.354837894E-1,1.149368286E0,-7.941556931E0
3.814369272E0,-8.102041483E-1,1.880141258E0,-8.415729523E0
3.824119376E0,-1.620905876E0,8.946027756E-1,-4.184771061E0
3.833869480E0,-1.762482047E0,-2.145929337E-1,2.490929842E0
3.843619584E0,-5.835351944E-1,-5.262060165E-1,7.788263321E0
3.853369689E0,1.516461670E-1,-5.266571045E-2,1.117326450E1
3.863119793E0,1.009195328E0,5.141448975E-1,9.096444130E0
3.872869897E0,5.322969556E-1,2.080240250E-1,4.671540737E0
3.882620105E0,1.932967186E0,2.994184494E-1,-3.286352396E0
3.892370209E0,1.798886299E0,6.986284256E-1,-1.165572357E1
3.902120314E0,9.120756388E-2,8.710918427E-1,-1.260789013E1
3.911870418E0,-2.369183898E-1,-2.912416458E-1,-6.738928318E0
3.921620522E0,-7.605516315E-1,-1.478754997E0,-1.473955989E0
3.931370626E0,-5.952147245E-1,-1.796525955E0,2.989895344E0
3.941120730E0,1.293621659E-1,-2.006290436E0,6.338979721E0
3.950870834E0,1.316669583E-2,-1.808236599E0,7.884172916E0
3.960620939E0,-4.566631317E-1,-5.561161041E-1,6.429336548E0
3.970371043E0,7.690443993E-1,7.412958145E-1,1.709234357E0
3.980121147E0,1.137985110E0,2.012496948E0,-7.631868720E-1
3.989871251E0,1.359311342E0,2.161558151E0,-2.070398808E0
3.999621355E0,1.390989184E0,1.596398354E0,-1.850440621E0
4.009371459E0,1.220916152E0,1.831522942E0,-1.427306890E0
4.019121564E0,6.385359168E-2,1.287206650E0,1.484885812E-2
4.028871668E0,-5.314105749E-1,3.598279953E-1,2.214008093E0
4.038621772E0,-8.510888815E-1,3.563022614E-1,2.416753292E0
4.048371876E0,-9.969970584E-1,7.325372696E-1,1.212937534E-1
4.058121980E0,-1.009109020E-1,1.681696892E0,-1.549562812E-1
4.067872084E0,1.960015297E0,2.477960587E0,4.777867198E-1
4.077622189E0,3.246189833E0,2.611907959E0,7.307283282E-1
4.087372293E0,2.019545078E0,2.115177155E0,5.458761454E-1
4.097122397E0,-1.149290800E-2,1.318296432E0,3.294312954E-2
4.106872501E0,-9.428890347E-1,1.483896255E0,-9.675637484E-1
4.116622605E0,-1.440667987E0,2.482131004E0,-1.815530062E-1
4.126372709E0,-1.496793509E0,4.225017548E0,6.961621642E-1
4.136122814E0,1.056867838E-1,4.911684990E0,6.074406505E-1
4.145872918E0,4.682934284E-1,4.285158157E0,1.663511276E0
4.155623022E0,-1.690030396E-1,3.287281990E0,4.258902550E0
4.165373126E0,-5.283482075E-1,2.585291862E0,3.631039619E0
4.175123230E0,-4.419670701E-1,1.828695297E0,7.562525272E-1
4.184873334E0,9.770679474E-1,1.918340683E0,-2.629391670E0
4.194623439E0,4.257332981E-1,1.819076538E0,-3.598887920E0
4.204373543E0,-9.467073679E-1,1.274819374E0,-3.545670986E0
4.214123647E0,-9.832804799E-1,1.047433853E0,-1.133347154E0
4.223873751E0,-1.962065220E0,2.375097275E-1,6.452740431E-1
4.233623855E0,-1.688993335E0,-8.366651535E-1,1.525701880E0
4.243373959E0,-1.301660299E0,-1.925930977E0,2.881628990E0
4.253124064E0,-4.013335705E-2,-2.063743114E0,1.942108393E0
4.262874168E0,1.375817776E0,-2.292464256E0,2.005463362E0
4.272624272E0,2.327214718E0,-1.297658920E0,3.060845852E0
4.282374376E0,1.797797561E0,-4.791049957E-1,4.485744953E0
4.292124480E0,2.230049819E-1,1.506271362E-1,5.088340759E0
4.301874584E0,-1.204544783E0,8.800363541E-1,4.051484108E0
4.311624689E0,-1.908255339E0,7.940044403E-1,1.346530437E0
4.321374793E0,-1.663774252E0,1.269227982E0,-1.260539770E0
4.331124897E0,-1.134884357E0,2.232972145E0,-2.955025673E0
4.340875001E0,7.114109397E-2,3.406472206E0,-4.711302280E0
4.350625105E0,7.293388247E-1,4.950667381E0,-6.126924515E0
4.360375209E0,1.981819272E-1,6.027550697E0,-5.026247501E0
4.370125209E0,1.715098500E0,8.131452560E0,-3.025618792E0
4.379875314E0,1.805826545E0,9.127386093E0,1.038522482E0
4.389625418E0,-3.707763255E-1,9.509620667E0,3.167401552E0
4.399375522E0,-2.186051369E0,1.104493618E1,2.548238516E0
4.409125626E0,-3.323766232E0,1.137575340E1,3.193495035E0
4.418875730E0,-3.614695549E0,1.129436779E1,3.449771643E0
4.428625834E0,-3.880192041E0,1.102426052E1,3.300607920E0
4.438375939E0,-4.110284328E0,9.710629463E0,1.935381413E0
4.448126043E0,-3.787950754E0,8.352825165E0,-2.786090076E-1
4.457876147E0,-1.639920115E0,8.480653763E0,-1.795236468E0
4.467626251E0,1.499778748E0,9.152673721E0,-3.780658245E0
4.477376355E0,3.291217804E0,8.788001060E0,-4.271876812E0
4.487126459E0,4.021943569E0,8.470004082E0,-3.478890896E0
4.496876564E0,4.803321362E0,7.815209389E0,-1.067083001E0
4.506626668E0,4.242306232E0,6.020787239E0,-7.005728483E-1
4.516376668E0,1.661500931E0,4.041618347E0,-2.146815062E0
4.526126772E0,-1.203329802E0,1.935340881E0,-2.612411022E0
4.535876876E0,-2.809714317E0,-3.039941788E-1,-1.654168606E0
4.545626980E0,-1.759338379E0,-3.507747650E-1,1.858960688E-1
4.555377084E0,1.125938892E-1,2.540111542E-1,1.243151069E0
4.565127189E0,1.261139154E0,1.214201927E0,1.102737904E0
4.574877293E0,2.116539001E0,2.729160309E0,1.633591652E0
4.584627397E0,2.333476067E0,3.399144173E0,1.352030158E0
4.594377501E0,2.239375353E0,3.601468086E0,5.227537751E-1
4.604127605E0,1.883114457E0,2.996259689E0,-2.576613426E-1
4.613877709E0,1.796428800E0,2.244318008E0,-1.978343487E0
4.623627709E0,1.404634118E0,1.893286705E0,-2.028664827E0
4.633377814E0,-3.531439602E-2,3.942537308E-1,1.502611637E-1
4.643127918E0,-1.162965417E0,-1.287825584E0,2.979081631E0
4.652878022E0,-1.232793689E0,-1.403841972E0,4.769968033E0
4.662628126E0,-6.294271350E-2,2.947387695E-1,4.615571022E0
4.672378230E0,1.110009551E0,1.321320534E0,1.838574171E0
4.682128334E0,8.505684733E-1,1.009012222E0,2.660875320E0
4.691878439E0,-1.351113245E-2,1.074390411E0,2.765517473E0
4.701628543E0,-6.950817704E-1,7.738552094E-1,2.538449287E0
4.711378543E0,-1.641342163E0,5.767536163E-1,1.498717904E0
4.721128647E0,-2.356834888E0,1.323699951E-1,-3.567711115E-1
4.730878751E0,-9.319538474E-1,-2.318582535E-1,-5.125745535E-1
4.740628855E0,5.517291427E-1,2.654457092E-2,-6.888660192E-1
4.750378959E0,7.263053060E-1,-1.029548645E-1,-8.054031134E-1
4.760129064E0,8.793196678E-1,-5.504913330E-1,1.383776426E0
4.769879168E0,5.631135702E-1,-7.618980408E-1,1.683080316E0
4.779629272E0,-1.520402551E0,-2.049551010E-1,3.523172855E0
4.789379272E0,-3.031364441E0,8.450260162E-1,4.930963516E0
4.799129376E0,-1.885829926E0,2.413683891E0,3.390912771E0
4.808879480E0,-8.044676781E-1,2.841529846E0,2.418869972E0
4.818629584E0,4.290454984E-1,2.704363823E0,3.990402818E-1
4.828379689E0,1.822435260E0,2.201210022E0,-1.431715250E0
4.838129793E0,2.354333639E0,1.805900574E0,-2.482520103E0
4.847879897E0,1.416737914E0,1.824348450E0,-3.560693264E0
4.857629897E0,3.036829829E-2,1.850600243E0,-3.792480230E0
4.867380001E0,-9.616589546E-1,1.458270073E0,-3.248812199E0
4.877130105E0,-1.176794410E0,7.339468002E-1,-1.971297026E0
4.886880209E0,-1.471025348E0,5.532436371E-1,7.180954218E-1
4.896630314E0,-5.293014646E-1,1.328092575E0,2.758877993E0
4.906380418E0,1.081279516E0,1.465179443E0,3.142837524E0
4.916130522E0,1.906014681E0,8.637094498E-1,2.712090969E0
4.925880522E0,2.020024300E0,1.759243011E-1,1.953816533E0
4.935630626E0,1.320001125E0,1.522970200E-1,1.765151024E0
4.945380730E0,8.666360378E-2,1.622762680E-1,1.425376892E0
4.955130834E0,-9.354583025E-1,-3.557910919E-1,1.418612838E0
4.964880939E0,-1.299425364E0,-8.799200058E-1,9.040229321E-1
4.974630939E0,-1.385735154E0,-1.113512993E0,9.406332970E-1
4.984381043E0,-5.702126026E-1,-1.026907921E0,5.288664103E-1
4.994131147E0,4.318181872E-1,-4.986028671E-1,-7.226055861E-1
5.003881251E0,1.543724060E0,1.056842804E-1,-2.291333199E0
5.013631355E0,2.270717144E0,4.200496674E-1,-3.177579880E0
5.023381459E0,2.179071426E0,3.727502823E-1,-2.851378918E0
5.033131459E0,1.381050825E0,1.980056763E-1,-2.456586838E0
5.042881564E0,8.155586123E-1,9.345912933E-2,-1.909401655E0
5.052631668E0,2.055745721E-1,6.315422058E-2,-1.281950235E0
5.062381772E0,-6.414392591E-1,1.215877533E-1,-3.944265842E-1
5.072131876E0,-1.016484499E0,1.402435303E-1,-2.026637793E-1
5.081881876E0,-7.615534663E-1,-1.075649261E-1,-4.437681437E-1
5.091631980E0,-3.111035824E-1,-4.811830521E-1,-6.762236357E-1
5.101382084E0,3.308243454E-1,-6.958074570E-1,1.344573498E-2
5.111132189E0,1.358664751E0,-4.038133621E-1,-2.037239075E-2
5.120882293E0,1.676023245E0,-1.019521713E0,-3.696091175E-1
5.130632293E0,1.229008675E0,-1.804557323E0,2.456159592E-1
5.140382397E0,7.373344898E-2,-2.463483810E0,1.083872318E0
5.150132501E0,-1.019115686E0,-2.919301033E0,1.315085173E0
5.159882605E0,-1.454433680E0,-2.864281654E0,8.407857418E-1
5.169632709E0,-1.582681298E0,-3.185452938E0,2.438771725E-1
5.179382709E0,-1.602082729E0,-3.542515755E0,7.389569283E-2
5.189132814E0,-1.551875472E0,-3.660705566E0,9.657859802E-2
5.198882918E0,-9.672093391E-1,-3.863780022E0,-1.004220724E0
5.208633022E0,1.528571248E-1,-4.241195679E0,-1.926274657E0
5.218383126E0,8.013079762E-1,-4.754244804E0,-2.543771029E0
5.228133126E0,9.710525870E-1,-5.251329422E0,-3.348743439E0
5.237883230E0,1.344841242E0,-5.670810699E0,-3.719026089E0
5.247633334E0,1.079644322E0,-5.836328506E0,-2.941858768E0
5.257383439E0,6.127737164E-1,-5.815331459E0,-1.830286264E0
5.267133543E0,3.288774192E-1,-6.060334682E0,-1.128696680E0
5.276883543E0,1.142060757E-1,-6.553436756E0,-1.099902749E0
5.286633647E0,8.897036314E-2,-6.711848259E0,-1.432166696E0
5.296383751E0,7.085660100E-1,-6.540170670E0,-1.424752712E0
5.306133855E0,1.507365704E0,-6.418233871E0,-4.087618589E-1
5.315883855E0,1.757672310E0,-6.835458279E0,-2.102090120E-1
5.325633959E0,1.319788456E0,-7.272694588E0,-1.309135437E0
5.335384064E0,2.786484361E-1,-7.440616608E0,-2.396523952E0
5.345134168E0,-4.067116976E-1,-7.214138031E0,-2.589951038E0
5.354884168E0,-7.008406520E-1,-6.272941589E0,-2.315217495E0
5.364634272E0,-7.566193342E-1,-4.872470856E0,-1.925652266E0
5.374384376E0,-4.357888699E-1,-3.219113350E0,-1.848617554E0
5.384134480E0,1.452446878E-1,-1.537490845E0,-2.403036594E0
5.393884480E0,4.986953139E-1,-1.421899796E-1,-3.438343525E0
5.403634584E0,6.453895569E-1,1.165777206E0,-4.202478409E0
5.413384689E0,5.163698792E-1,2.161923409E0,-4.082973957E0
5.423134793E0,3.576795161E-1,2.789126396E0,-3.113337517E0
5.432884793E0,1.171588898E-2,2.906929970E0,-9.424616098E-1
5.442634897E0,1.471169293E-1,2.776660919E0,1.111993194E0
5.452385001E0,1.002721667E0,2.503599167E0,3.069879770E0
5.462135001E0,1.864999413E0,2.443163872E0,4.522152901E0
5.471885105E0,2.542847872E0,2.621013641E0,3.894703865E0
5.481635209E0,2.144961596E0,2.165344238E0,2.692520142E0
5.491385314E0,1.179035306E0,1.479383469E0,9.258903861E-1
5.501135314E0,1.025180519E-1,6.042928696E-1,-3.292101622E-1
5.510885418E0,-7.339329123E-1,-4.575014114E-1,-3.976785541E-1
5.520635522E0,-9.690213203E-1,-1.292717934E0,-3.557421565E-1
5.530385522E0,-1.022954941E0,-2.047481537E0,-1.540755928E-1
5.540135626E0,-1.000766039E0,-2.547665596E0,-3.736221790E-1
5.549885730E0,-1.167249918E0,-2.488364697E0,-9.194564819E-1
5.559635834E0,-9.710681438E-1,-2.099897861E0,-1.217815399E0
5.569385834E0,-2.330062389E-1,-1.726409435E0,-1.367260575E0
5.579135939E0,2.057144642E-1,-1.233833313E0,-1.727964520E0
5.588886043E0,3.972194493E-1,-6.462163925E-1,-2.223637581E0
5.598636043E0,4.688324332E-1,-4.054422379E-1,-2.393432379E0
5.608386147E0,6.501011848E-1,-1.790561676E-1,-2.427988291E0
5.618136147E0,2.647514641E-1,9.705257416E-2,-2.003343105E0
5.627886251E0,-5.380529165E-2,5.491399765E-1,-1.919823885E0
5.637636355E0,-2.775160074E-1,6.276683807E-1,-1.732180834E0
5.647386459E0,-6.507738829E-1,6.006565094E-1,-1.237742424E0
5.657136564E0,-1.093926549E0,5.803928375E-1,-4.712305367E-1
5.666886564E0,-9.257772565E-1,6.125402451E-1,-2.777124047E-1
5.676636668E0,-4.138196707E-1,6.472034454E-1,-2.021947801E-1
5.686386668E0,-8.478760719E-4,6.630411148E-1,3.040645421E-1
5.696136772E0,9.496065974E-2,5.717678070E-1,9.552443027E-1
5.705886772E0,2.741028666E-1,2.684240341E-1,1.473624229E0
5.715636980E0,3.818715215E-1,-4.171752930E-2,2.216092110E0
5.725386980E0,3.125066757E-1,-4.594621658E-1,2.975598097E0
5.735137084E0,2.710612118E-1,-7.650375366E-1,2.955434084E0
5.744887189E0,1.484804451E-1,-7.507944107E-1,2.446041346E0
5.754637189E0,6.141233444E-2,-8.418149948E-1,1.369632363E0
5.764387293E0,6.826800108E-2,-8.318805695E-1,-1.707491279E-2
5.774137397E0,1.128606200E-1,-6.707553864E-1,-1.407879472E0
5.783887397E0,1.113023162E-1,-7.431745529E-1,-2.071408033E0
5.793637501E0,-3.596168756E-2,-1.010679245E0,-2.195945740E0
5.803387605E0,-1.490203142E-1,-1.301328659E0,-1.770030737E0
5.813137605E0,-2.078202367E-1,-1.498426437E0,-8.962357044E-1
5.822887709E0,7.604300976E-3,-1.423335075E0,-7.568259537E-2
5.832637814E0,8.705556393E-2,-1.508899689E0,5.987430811E-1
5.842387814E0,1.145660281E-1,-1.613610268E0,4.944875836E-2
5.852137918E0,3.783048987E-1,-1.400350571E0,-1.092067838E0
5.861887918E0,6.448303461E-1,-1.239558220E0,-1.820241213E0
5.871638022E0,6.872799397E-1,-1.276618958E0,-2.033677578E0
5.881388126E0,8.902965784E-1,-1.379634857E0,-1.949267626E0
5.891138126E0,7.889374495E-1,-1.579540253E0,-1.760708570E0
5.900888230E0,7.181352377E-1,-1.745002747E0,-1.182392240E0
5.910638334E0,5.446788669E-1,-2.048191071E0,-6.547564268E-1
5.920388334E0,3.541368544E-1,-2.369768143E0,-2.526431680E-1
5.930138439E0,-9.285831451E-2,-2.707780361E0,4.776317179E-1
5.939888439E0,-2.637008429E-1,-3.043158531E0,5.271638632E-1
5.949638543E0,-1.848770976E-1,-3.246749878E0,4.173544049E-1
5.959388647E0,-5.931305885E-2,-3.249649048E0,3.181210160E-1
5.969138647E0,1.550693810E-1,-3.126330376E0,2.783414721E-1
5.978888647E0,3.164717853E-1,-3.227750778E0,-2.868799567E-1
5.988638855E0,3.941971064E-1,-3.345743179E0,-3.942631483E-1
5.998388855E0,3.782012463E-1,-3.662239552E0,-9.105378389E-2
6.008138959E0,-1.043754220E-1,-4.091285706E0,8.146035671E-2
6.017888959E0,-6.008136868E-1,-4.317480087E0,-3.453719020E-1
6.027639064E0,-7.625496984E-1,-4.386429787E0,-6.274418831E-1
6.037389168E0,-6.694386005E-1,-4.253007889E0,-3.748419881E-1
6.047139168E0,-2.538985014E-1,-4.236914635E0,-2.798402309E-2
6.056889272E0,7.247197628E-1,-3.990849972E0,-7.165493965E-1
6.066639272E0,1.523862362E0,-3.440943718E0,-1.492916465E0
6.076389376E0,1.811138868E0,-3.122728825E0,-2.045872211E0
6.086139480E0,1.790451288E0,-3.308322906E0,-1.024268270E0
6.095889480E0,1.151563644E0,-4.002287865E0,1.324491858E0
6.105639584E0,-8.279299736E-1,-5.307032108E0,3.791206598E0
6.115389584E0,-2.584685564E0,-5.683259487E0,3.975816488E0
6.125139689E0,-3.374007463E0,-5.492431164E0,2.179708004E0
6.134889689E0,-2.654741764E0,-4.671009064E0,-1.459394574E0
6.144639793E0,-1.566965699E0,-3.574596405E0,-5.378124237E0
6.154389897E0,-4.046605229E-1,-2.858468056E0,-7.786744118E0
6.164139897E0,1.296057940E0,-2.475630760E0,-7.007012367E0
6.173890001E0,2.947234392E0,-1.865651131E0,-4.289036274E0
6.183640001E0,2.905600071E0,-1.926334381E0,-4.001049697E-1
6.193390001E0,1.398624182E0,-2.282320023E0,3.661191225E0
6.203140105E0,-8.525396883E-2,-2.259081841E0,6.443462849E0
6.212890209E0,-1.455310106E0,-1.667502880E0,7.487960815E0
6.222640314E0,-2.017763853E0,-7.944345474E-1,6.237614632E0
6.232390314E0,-1.055385947E0,2.083320618E-1,2.304931402E0
6.242140418E0,-1.656603515E-1,7.560262680E-1,-1.202697515E0
6.251890418E0,5.868728757E-1,1.130995750E0,-2.176795483E0
6.261640522E0,1.228955150E0,1.149619102E0,-6.065334678E-1
6.271390522E0,1.722022176E0,1.025199890E0,1.258167624E0
6.281140626E0,1.318215847E0,7.057380676E-1,2.856813192E0
6.290890626E0,3.222972155E-1,-5.127906799E-2,3.750869274E0
6.300640730E0,-1.060304403E0,-1.348751068E0,4.600461006E0
6.310390834E0,-2.271684885E0,-2.625895500E0,2.712774992E0
6.320140834E0,-2.001179457E0,-2.156132221E0,-9.601210356E-1
6.329890939E0,-1.442695618E0,-2.257828236E0,-4.571262360E0
6.339640939E0,-8.560054302E-1,-1.891726971E0,-7.094297886E0
6.349391043E0,-2.152405381E-1,-1.932116032E0,-6.866637230E0
6.359141043E0,2.279687673E-1,-2.096741199E0,-1.807328105E0
6.368891147E0,1.807742715E0,-9.372329712E-1,5.126474380E0
6.378641147E0,2.875028610E0,1.630926132E-1,9.951067924E0
6.388391251E0,2.648868322E0,4.864778519E-1,9.037287712E0
6.398141251E0,1.243294001E0,-2.845621109E-1,4.219498158E0
6.407891355E0,6.313126087E-1,-4.524469376E-1,-3.202751875E0
6.417641355E0,9.938590527E-1,9.585914612E-1,-7.176223278E0
6.427391459E0,1.744275689E0,5.528860092E-1,-8.687770844E0
6.437141459E0,1.572788000E0,-3.898525238E-1,-8.219971657E0
6.446891564E0,6.351801753E-2,-6.620159149E-1,-4.703663826E0
6.456641564E0,-2.030796766E0,2.944784164E-1,3.068653345E0
6.466391668E0,-2.416467428E0,1.153084755E0,8.511139870E0
6.476141668E0,-1.725783587E0,2.813026428E0,1.206927490E1
6.485891772E0,-1.373045921E0,4.119235039E0,1.210161209E1
6.495641772E0,-1.155713439E0,3.437277794E0,8.531270027E0
6.505391876E0,-2.593502402E-1,3.474490166E0,2.091936588E0
6.515141876E0,7.896190286E-1,2.786292076E0,-4.153667927E0
6.524891980E0,9.371153712E-1,1.476483345E0,-8.674262047E0
6.534641980E0,6.958152652E-1,5.581045151E-1,-8.018101692E0
6.544391980E0,1.765310287E0,6.258201599E-1,-4.658966064E0
6.554142084E0,1.158025622E0,7.319974899E-1,-6.944943070E-1
6.563892084E0,-1.622507870E-1,5.256910324E-1,2.265812397E0
6.573642189E0,-6.180865765E-1,1.014460564E0,3.944479942E0
6.583392189E0,-2.935279012E-1,1.968443871E0,3.422893524E0
6.593142293E0,-1.935724735E0,2.151420593E0,7.768939137E-1
6.602892293E0,-4.496085167E0,6.877593994E-1,-8.008193970E-2
6.612642397E0,-4.174376965E0,1.079950333E-1,-4.826145172E-1
6.622392293E0,-9.239756465E-1,-2.349662781E-1,3.125250041E-1
6.632142501E0,1.570660472E0,-3.852272034E-2,5.117884159E0
6.641892501E0,4.866935730E0,1.351504326E0,6.723029613E0
6.651642605E0,8.629862785E0,4.995535851E0,4.689267159E0
6.661392605E0,9.167908669E0,7.865097046E0,8.114964962E-1
6.671142709E0,5.372291088E0,8.259026527E0,-1.744199038E0
6.680892709E0,5.498660803E-1,8.065445900E0,-4.200828075E0
6.690642709E0,-3.546976089E0,8.524904251E0,-4.677253246E0
6.700392814E0,-4.501865387E0,9.585519791E0,-2.898092747E0
6.710142814E0,-2.893178225E0,8.672183037E0,-2.232327938E0
6.719892918E0,-6.332882643E-1,8.713183403E0,-2.666644812E0
6.729642918E0,1.416301012E0,9.386138916E0,-2.955894947E0
6.739393022E0,2.835582256E0,9.872933388E0,-1.756776810E0
6.749143022E0,2.806767464E0,9.062026978E0,-1.796474814E0
6.758893022E0,1.077445269E0,8.102658272E0,-1.749815583E0
6.768643126E0,-6.281517744E-1,7.997980118E0,-1.883599520E0
6.778393126E0,-3.593562841E0,7.576828957E0,-1.490781069E0
6.788143230E0,-5.766719341E0,7.517958641E0,1.054428458E0
6.797893230E0,-3.279680252E0,9.226317406E0,3.157952309E0
6.807643334E0,-9.349440336E-1,1.104327202E1,3.587704182E0
6.817393334E0,-2.287652194E-1,1.170976925E1,3.010891676E0
6.827143334E0,-8.337387443E-1,1.048844624E1,2.906162024E0
6.836893439E0,-9.687465429E-1,8.544715881E0,1.523898244E0
6.846643439E0,5.794137716E-2,7.150631905E0,-3.859085441E-1
6.856393543E0,1.020924211E0,6.242643356E0,-2.597666740E0
6.866143543E0,1.682971478E0,5.604125023E0,-4.812773705E0
6.875893543E0,1.360551119E0,4.938119888E0,-4.805886745E0
6.885643647E0,2.210643291E0,4.229604721E0,-4.809692860E0
6.895393647E0,3.528321266E0,3.554428101E0,-4.005210876E0
6.905143751E0,3.467605591E0,2.244150162E0,-3.190678835E0
6.914893751E0,2.471120358E0,8.363656998E-1,-2.212999344E0
6.924643751E0,8.940185606E-2,-1.421241760E-1,3.609488606E-1
6.934393855E0,-2.270916224E0,-1.093410492E0,1.794053793E0
6.944143855E0,-3.918428898E0,-9.679298401E-1,1.652937889E0
6.953893855E0,-3.373262167E0,-4.935884476E-1,2.517665625E0
6.963643959E0,-2.279087543E0,-2.843017578E-1,4.150474548E0
6.973393959E0,-1.282100677E-1,-2.058095932E-1,3.433263302E0
6.983143959E0,1.621133804E0,-1.958703995E-1,2.613368988E0
6.992894064E0,1.915366173E0,-1.389026642E-2,8.630021811E-1
7.002644064E0,1.299173236E0,4.609088898E-1,-1.230095625E0
7.012394168E0,-1.020663381E-1,6.355228424E-1,-1.856548190E0
7.022144168E0,-1.969003916E0,2.331066132E-2,-1.924527407E0
7.031894168E0,-2.993160009E0,-1.521596909E-1,-5.006644726E-1
7.041644272E0,-2.960487843E0,-2.933330536E-1,8.464282751E-1
7.051394272E0,-1.613813281E0,-3.874187469E-1,8.412361145E-1
7.061144272E0,5.890336037E-1,5.024929047E-1,1.254168630E0
7.070894376E0,1.450977683E0,1.489112854E0,1.977862358E0
7.080644376E0,1.763448238E0,2.822792053E0,2.431113958E0
7.090394376E0,1.204383850E0,3.540552139E0,2.448317051E0
7.100144480E0,-2.914892733E-1,3.386308670E0,2.156344175E0
7.109894480E0,-2.760310650E0,2.795011520E0,2.404345274E0
7.119644480E0,-3.693385363E0,2.441473961E0,2.304338694E0
7.129394584E0,-2.477509260E0,2.028039932E0,6.448767185E-1
7.139144584E0,-1.138586521E0,1.124877930E0,-2.076470375E0
7.148894584E0,5.459963679E-1,4.159631729E-1,-3.510254860E0
7.158644689E0,2.389199257E0,3.638544083E-1,-2.983366966E0
7.168394689E0,1.749774933E0,6.673431396E-2,-8.451631069E-1
7.178144689E0,-2.083738744E-1,-1.343857765E0,8.751959801E-1
7.187894793E0,-3.581616580E-1,-2.002198219E0,1.909430623E0
7.197644793E0,-3.801996112E-1,-1.425705910E0,2.553374529E0
7.207394793E0,-1.462778449E0,-6.301021576E-1,3.351540804E0
7.217144793E0,-2.323385715E0,2.569847107E-1,3.409333467E0
7.226894897E0,-4.588453174E-1,1.132541656E0,2.488102913E0
7.236644897E0,1.795765162E0,2.244690895E0,2.151242733E0
7.246394897E0,2.177922726E0,2.272603035E0,1.435702205E0
7.256145001E0,1.579999685E0,1.044650078E0,4.565735757E-1
7.265895001E0,3.874543607E-1,2.492580414E-1,-3.344189227E-1
7.275645001E0,-4.905690253E-1,1.386184692E-1,-7.582898140E-1
7.285395001E0,-1.097119212E0,-4.295730591E-2,2.602424100E-2
7.295145105E0,-1.456733942E0,-6.580085754E-1,1.130329728E0
7.304895105E0,-1.480882645E0,-1.369322777E0,2.352108717E0
7.314645105E0,-5.284605622E-1,-1.368094444E0,2.251990557E0
7.324395209E0,7.535730600E-1,-3.411426544E-1,1.639344096E0
7.334145209E0,1.496045470E0,5.375308990E-1,6.958862543E-1
7.343895209E0,1.918711066E0,3.258638382E-1,-7.260050774E-1
7.353645209E0,1.682735562E0,-1.451997757E-1,-1.393204093E0
7.363395314E0,1.194875240E0,-6.627264023E-1,-1.118009210E0
7.373145209E0,9.865126610E-1,-6.204280853E-1,-7.931414843E-1
7.382895314E0,9.600087404E-1,-3.275680542E-1,-6.634351015E-1
7.392645314E0,9.915739298E-1,-9.351968765E-1,-8.841558695E-1
7.402395418E0,1.066858053E0,-1.841955185E0,-1.170158625E0
7.412145418E0,1.399649024E0,-2.256915092E0,-1.382178426E0
7.421895418E0,1.968852758E0,-2.052174091E0,-1.040977597E0
7.431645418E0,8.575817943E-1,-2.105116844E0,-8.565891385E-1
7.441395522E0,-3.135759532E-1,-1.863629341E0,-7.743115425E-1
7.451145522E0,-7.740578055E-1,-6.198463440E-1,9.474785328E-1
7.460895522E0,-9.132876992E-1,3.697280884E-1,3.084116459E0
7.470645522E0,-9.372912049E-1,8.115110397E-1,3.770418167E0
7.480395626E0,-7.123094797E-1,8.026866913E-1,2.732049227E0
7.490145626E0,-2.210099399E-1,3.713226318E-1,1.023429871E0
7.499895626E0,5.248932838E-1,4.424953461E-2,-7.669351101E-1
7.509645626E0,1.008021593E0,7.952594757E-2,-2.555708170E0
7.519395626E0,7.624248266E-1,-1.253242493E-1,-3.026570320E0
7.529145730E0,-2.452025414E-1,-1.765804291E-1,-1.787326455E0
7.538895730E0,-8.367874026E-1,-1.494483948E-1,-4.329181910E-1
7.548645730E0,-7.635468245E-1,-4.265937805E-1,2.865166068E-1
7.558395730E0,-7.555120587E-1,-7.159996033E-1,2.956706882E-1
7.568145834E0,-3.612397909E-1,-9.904985428E-1,6.229865551E-2
7.577895834E0,5.426297188E-1,-1.177190781E0,-5.410653353E-2
7.587645834E0,1.205971956E0,-1.325306892E0,-1.756821871E-1
7.597395834E0,1.718190193E0,-1.365124702E0,-5.429671407E-1
7.607145834E0,2.482979059E0,-1.254021645E0,-1.166376710E0
7.616895939E0,2.661450863E0,-1.450557709E0,-1.548454762E0
7.626645939E0,1.810573816E0,-2.052622795E0,-1.574815154E0
7.636395939E0,3.853254318E-1,-2.963659286E0,-2.188366055E-1
7.646145939E0,-1.012131214E0,-3.149936676E0,2.077785492E0
7.655895939E0,-1.831961632E0,-3.159214973E0,2.872534275E0
7.665646043E0,-1.847778797E0,-2.733404636E0,2.273256779E0
7.675396043E0,-8.750936389E-2,-1.727248192E0,6.416023970E-1
7.685146043E0,2.468442678E0,-7.113656998E-1,-1.915154099E0
7.694896043E0,3.771419764E0,-7.083425522E-1,-3.514290094E0
7.704646043E0,2.401336193E0,-2.150368214E0,-4.176305771E0
7.714396043E0,1.238241911E0,-3.695464134E0,-4.651765823E0
7.724146043E0,8.212140799E-1,-4.512702942E0,-3.607815742E0
7.733896147E0,-2.328686118E-1,-4.790680885E0,-9.733742476E-1
7.743646147E0,-2.398193836E0,-5.414097786E0,1.094369769E0
7.753396147E0,-3.818531513E0,-5.920788288E0,2.816002846E0
7.763146147E0,-3.735054970E0,-6.051395416E0,3.334568739E0
7.772896147E0,-2.265246153E0,-5.465091705E0,2.007426739E0
7.782646147E0,-6.567991376E-1,-4.733942509E0,-6.624205112E-1
7.792396251E0,2.149109840E-1,-4.478276730E0,-2.759730816E0
7.802146251E0,7.279416323E-1,-4.385494709E0,-4.058920860E0
7.811896251E0,9.369392991E-1,-4.495081902E0,-4.803761959E0
7.821646251E0,8.795782924E-1,-5.209221363E0,-4.658793926E0
7.831396251E0,3.260457814E-1,-6.154868603E0,-3.025620461E0
7.841146251E0,-6.193482876E-1,-5.983695030E0,-1.440799713E0
7.850896251E0,-1.437688112E0,-4.764657021E0,-5.325556993E-1
7.860646251E0,-9.753399491E-1,-3.197732925E0,6.936895847E-2
7.870396355E0,4.638017714E-1,-1.519203186E0,-9.715056419E-2
7.880146355E0,1.110162973E0,-5.911998749E-1,-8.159019947E-1
7.889896355E0,1.219158053E0,-3.101215363E-1,-1.086017489E0
7.899646355E0,1.346045017E0,-6.212520599E-2,-1.700932026E0
7.909396355E0,1.484138846E0,2.072076797E-1,-2.525123358E0
7.919146355E0,1.172789097E0,4.329881668E-1,-3.025502443E0
7.928896355E0,8.052471876E-1,8.134336472E-1,-2.968244553E0
7.938646355E0,5.558780432E-1,1.037117958E0,-2.167791367E0
7.948396355E0,4.414224029E-1,1.131467819E0,-1.159804225E0
7.958146459E0,2.338264287E-1,8.850049973E-1,9.945678711E-2
7.967896459E0,-1.320294142E-1,3.883543015E-1,1.088953257E0
7.977646459E0,-4.993634224E-1,1.215219498E-1,1.672588110E0
7.987396459E0,-6.188688278E-1,7.726192474E-2,1.826403141E0
7.997146459E0,-4.413549900E-1,1.943111420E-1,1.442713141E0
8.006896459E0,-1.276248693E-1,2.447900772E-1,7.854892015E-1
8.016646459E0,1.165071130E-1,6.026363373E-2,-2.389351130E-1
8.026396459E0,3.184658587E-1,-4.586791992E-2,-8.791359663E-1
8.036146459E0,4.485937953E-1,-5.951786041E-2,-9.610904455E-1
8.045896459E0,4.094194770E-1,-3.392362595E-1,-9.213380814E-1
8.055646459E0,1.511821747E-1,-7.629690170E-1,-9.608878493E-1
8.065396459E0,-1.631487608E-1,-9.010095596E-1,-9.154119492E-1
8.075146564E0,-4.515474439E-1,-1.014760971E0,-8.084960580E-1
8.084896564E0,-7.186859250E-1,-1.052413940E0,-3.038924336E-1
8.094646564E0,-5.275331140E-1,-7.929573059E-1,4.629025459E-1
8.104396564E0,-1.516591907E-1,-4.355382919E-1,1.221815348E0
8.114146564E0,-1.532716155E-1,-7.296380997E-1,8.736464977E-1
8.123896564E0,-2.014204562E-1,-8.204317093E-1,1.882700920E-1
8.133646564E0,-1.906377077E-1,-5.451440811E-1,-2.007594109E-1
8.143396564E0,-2.021633983E-1,-3.719768524E-1,-5.780152678E-1
8.153146564E0,-4.291710258E-1,-2.648773193E-1,-1.087678432E0
8.162896564E0,-6.583931446E-1,-1.211137772E-1,-1.400145173E0
8.172646564E0,-7.096264362E-1,6.637668610E-2,-1.334550977E0
8.182396564E0,-6.565184593E-1,2.305145264E-1,-1.196296215E0
8.192146564E0,-3.290594816E-1,5.763368607E-1,-8.095905781E-1
8.201896564E0,-8.284246922E-2,7.207822800E-1,-1.190694571E-1
8.211646564E0,-9.025132656E-2,4.870624542E-1,4.206240177E-1
8.221396564E0,-3.378203511E-2,1.592941284E-1,8.749443293E-1
8.231146564E0,-9.729284048E-2,-5.970191956E-2,1.336342573E0
8.240896564E0,-1.009004116E-1,-8.396816254E-2,1.485129714E0
8.250646564E0,-9.169030190E-2,-7.331466675E-2,1.284753799E0
8.260396564E0,5.905407667E-2,6.602764130E-2,1.006000996E0
8.270146564E0,1.377016306E-1,1.839466095E-1,6.431386471E-1
8.279896564E0,1.129205525E-1,2.282094955E-1,3.068041801E-1
8.289646564E0,-1.037120819E-5,2.013969421E-1,1.063060760E-2
8.299396564E0,-1.363457441E-1,6.995964050E-2,-6.263530254E-2
8.309146564E0,-3.433420956E-1,-4.201412201E-2,-1.103098392E-1
8.318896564E0,-4.910531044E-1,-1.250267029E-1,-1.783664227E-1
8.328646564E0,-6.726558208E-1,-3.271579742E-1,-1.075299978E-1
8.338396564E0,-7.696421146E-1,-3.594875336E-1,4.998445511E-3
8.348146564E0,-7.221276760E-1,-1.891412735E-1,1.267497540E-1
8.357896564E0,-5.101407766E-1,-6.502056122E-2,3.175214529E-1
8.367646564E0,-1.579316258E-1,1.226415634E-1,5.439016819E-1
8.377396564E0,6.768617034E-2,2.331075668E-1,5.783313513E-1
8.387146564E0,1.216547191E-1,2.239341736E-1,3.473092318E-1
8.396896564E0,7.932758331E-2,1.576375961E-1,1.219960451E-1
8.406646564E0,1.989245862E-1,2.231264114E-1,-1.371828318E-1
8.416396564E0,2.855663300E-1,3.149576187E-1,-3.391408324E-1
8.426146564E0,1.740041971E-1,1.513872147E-1,-3.988415003E-1
8.435896564E0,5.089130998E-2,-8.559036255E-2,-3.123990297E-1
8.445646564E0,3.737032413E-3,-1.621398926E-1,-1.621314287E-1
8.455396564E0,-1.400667429E-2,-1.910762787E-1,-4.478180408E-2
8.465146564E0,-1.283014417E-1,-2.753210068E-1,1.502209902E-1
8.474896564E0,-2.073154449E-1,-2.546634674E-1,4.936659336E-2
8.484646564E0,-1.219648719E-1,-1.052856445E-1,8.254432678E-2
8.494396564E0,-1.486539841E-4,5.793952942E-2,2.409818172E-1
8.504146564E0,1.756180227E-1,2.205753326E-1,3.637063503E-1
8.513896564E0,1.830815971E-1,2.087116241E-1,3.766150475E-1
8.523646459E0,5.750533938E-2,1.976795197E-1,5.739104748E-2
8.533396459E0,1.018480062E-1,2.495937347E-1,-2.907179594E-1
8.543146459E0,2.598930001E-1,3.136453629E-1,-7.910430431E-2
8.552896459E0,2.503355443E-1,2.486743927E-1,1.269690990E-1
8.562646459E0,1.651021987E-1,1.573467255E-1,2.313889265E-1
8.572396459E0,1.475291550E-1,1.897687912E-1,4.899334908E-1
8.582146459E0,2.051073462E-1,1.760816574E-1,5.856186152E-1
8.591896459E0,2.289083302E-1,1.856212616E-1,5.383499861E-1
8.601646459E0,2.178975046E-1,1.803627014E-1,3.759154081E-1
8.611396459E0,3.647779822E-1,1.367511749E-1,1.758185625E-1
8.621146459E0,3.580362797E-1,3.352069855E-2,1.733744144E-1
8.630896459E0,2.512932420E-1,-1.051712036E-1,8.477270603E-2
8.640646459E0,1.887947321E-1,-4.080400467E-1,6.177926064E-2
8.650396355E0,1.005543470E-1,-6.885538101E-1,6.856715679E-2
8.660146355E0,1.674669832E-1,-7.310438156E-1,1.165395975E-1
8.669896355E0,3.062151372E-1,-6.505689621E-1,2.879766226E-1
8.679646355E0,5.616382360E-1,-5.198345184E-1,3.756756783E-1
8.689396355E0,7.543706894E-1,-3.328790665E-1,4.382194281E-1
8.699146355E0,4.102772176E-1,-4.952049255E-1,1.583461761E-1
8.708896355E0,-1.659193635E-2,-8.969106674E-1,-2.857396007E-1
8.718646355E0,-2.921676934E-1,-1.178490639E0,-4.404270649E-1
8.728396355E0,-5.170897841E-1,-1.320638657E0,-5.673828125E-1
8.738146355E0,-6.200629473E-1,-1.559694290E0,-5.935060382E-1
8.747896251E0,-7.267755270E-1,-1.736000538E0,-4.788172245E-1
8.757646251E0,-5.526425838E-1,-1.530293465E0,-6.019553542E-1
8.767396251E0,-2.417862415E-4,-1.048701286E0,-5.475856662E-1
8.777146251E0,4.354485273E-1,-6.231927872E-1,-9.662088752E-1
8.786896251E0,1.008124113E0,-2.888183594E-1,-1.723188519E0
8.796646251E0,1.455769777E0,-2.357769012E-2,-2.125468493E0
8.806396251E0,1.445389390E0,-1.015977859E-1,-2.312882423E0
8.816146147E0,1.268218160E0,-4.049043655E-1,-2.444183350E0
8.825896147E0,7.941576242E-1,-7.516431808E-1,-2.389283895E0
8.835646147E0,2.852270007E-1,-1.170885086E0,-2.073198557E0
8.845396147E0,-2.375540137E-1,-1.472184181E0,-1.622678757E0
8.855146147E0,-6.246247888E-1,-1.935891151E0,-1.284326792E0
8.864896147E0,-5.252772570E-1,-2.306688309E0,-8.610411882E-1
8.874646043E0,-3.470850587E-1,-2.636994362E0,-8.940849900E-1
8.884396043E0,-3.446862102E-2,-2.950316429E0,-1.169680476E0
8.894146043E0,2.438709587E-1,-3.430138111E0,-1.507936478E0
8.903896043E0,4.761256576E-1,-3.908813477E0,-1.675499439E0
8.913646043E0,5.505099893E-1,-4.429395676E0,-1.440486193E0
8.923396043E0,5.046898127E-1,-4.845996857E0,-1.381477475E0
8.933145939E0,2.086391598E-1,-5.063129902E0,-1.218345881E0
8.942895939E0,-3.902282119E-1,-5.033412933E0,-8.665877581E-1
8.952645939E0,-9.300803542E-1,-4.783786774E0,-6.732826233E-1
8.962395939E0,-1.605903864E0,-4.699877262E0,-4.857452512E-1
8.972145939E0,-2.132025957E0,-4.514641285E0,1.235882044E-1
8.981895939E0,-2.158614397E0,-4.127687931E0,1.698889136E-1
8.991645834E0,-1.224550009E0,-3.564446926E0,-5.257680416E-1
9.001395834E0,-1.265592873E-2,-2.908031464E0,-1.290730357E0
9.011145834E0,8.224994540E-1,-2.437977314E0,-1.450442076E0
9.020895834E0,1.167446613E0,-2.261449337E0,-1.122828722E0
9.030645834E0,9.096354842E-1,-2.474080563E0,-7.859362364E-1
9.040395730E0,2.335489094E-1,-2.644257545E0,7.337725163E-2
9.050145730E0,-3.479035497E-1,-2.458451748E0,5.635013580E-1
9.059895730E0,-8.278597593E-1,-1.870573997E0,1.139228821E0
9.069645730E0,-1.189294934E0,-1.302952766E0,1.096964955E0
9.079395626E0,-1.023794293E0,-9.660148621E-1,2.188895941E-1
9.089145626E0,-6.209518909E-1,-4.086370468E-1,-9.677006006E-1
9.098895626E0,2.978591621E-1,6.849575043E-2,-2.055754662E0
9.108645626E0,8.912475109E-1,-5.747032166E-2,-2.308760166E0
9.118395626E0,1.347037077E0,-3.515129089E-1,-1.561689734E0
9.128145522E0,1.366540790E0,-7.072000504E-1,1.533951759E-1
9.137895522E0,6.474983692E-1,-8.541450500E-1,2.117226124E0
9.147645522E0,-4.672776163E-2,-8.895502090E-1,3.983188391E0
9.157395522E0,-1.787041277E-1,-7.415838242E-1,4.893342495E0
9.167145418E0,-7.874927521E-1,-6.996116638E-1,4.644207954E0
9.176895418E0,-1.179879069E0,-6.626148224E-1,2.333760262E0
9.186645418E0,-7.451965809E-1,9.740943909E-1,-7.084599137E-1
9.196395418E0,4.563208818E-1,2.610498428E0,-2.786897898E0
9.206145314E0,8.145434856E-1,2.104788780E0,-2.265912294E0
9.215895314E0,6.173691750E-1,3.452997208E-1,9.569135308E-2
9.225645314E0,6.781784296E-1,-9.538221359E-1,1.932404041E0
9.235395314E0,4.563430548E-1,-1.708909035E0,3.234933376E0
9.245145209E0,-1.326811314E-2,-2.142082214E0,4.919424057E0
9.254895209E0,-4.636591673E-1,-2.100342751E0,5.642175198E0
9.264645209E0,-7.468379736E-1,-1.317564964E0,4.117642403E0
9.274395105E0,-3.294880986E-1,-4.647626877E-1,4.508236051E-1
9.284145105E0,-3.314403296E-1,3.379335403E-1,-2.842030287E0
9.293895105E0,-1.333186924E-1,8.639888763E-1,-3.492898941E0
9.303645105E0,7.317076921E-1,7.687931061E-1,-2.785584688E0
9.313395001E0,1.790526628E0,-9.099483490E-2,-1.281195164E0
9.323145001E0,1.828028202E0,-1.062378883E0,9.247687459E-1
9.332895001E0,6.100783348E-1,-2.187088966E0,3.345429659E0
9.342644897E0,-1.140202284E0,-2.592351913E0,4.998298645E0
9.352394897E0,-8.379347324E-1,-2.309361458E0,5.031322002E0
9.362144897E0,-1.077156067E0,-2.099374294E0,3.390891790E0
9.371894793E0,-1.644721508E0,-1.561482430E0,1.974304080E0
9.381644793E0,-2.087190628E0,-4.238805771E-1,3.744608164E-1
9.391394793E0,-1.302106380E0,7.146883011E-1,-1.859638214E0
9.401144793E0,4.171316624E-1,1.513304710E0,-4.390407562E0
9.410894689E0,3.318616390E0,2.713289261E0,-6.724237442E0
9.420644689E0,4.610047340E0,3.151585579E0,-6.822229385E0
9.430394689E0,2.002591372E0,1.141514778E0,-2.731864929E0
9.440144584E0,-1.500249147E0,-9.294624329E-1,2.281694889E0
9.449894584E0,-2.339163780E0,-1.527738571E0,6.569535732E0
9.459644584E0,-1.306327462E0,-8.318386078E-1,7.975697517E0
9.469394480E0,-7.358607054E-1,-2.766418457E-2,5.959597588E0
9.479144480E0,-1.383399367E-1,6.743640900E-1,1.710149169E0
9.488894376E0,2.348111629E0,2.644770622E0,-2.037638664E0
9.498644376E0,3.180372715E0,3.442126274E0,-3.046214581E0
9.508394376E0,1.971822023E0,3.274022102E0,-3.297532082E0
9.518144376E0,1.461491942E0,2.816572189E0,-2.524239063E0
9.527894272E0,1.600499392E0,2.120131493E0,2.239871621E-1
9.537644272E0,1.005512834E0,1.467294693E0,2.365409851E0
9.547394272E0,-6.208202839E-1,5.252161026E-1,4.062397480E0
9.557144168E0,-4.644984305E-1,7.507429123E-1,4.352523327E0
9.566894168E0,-1.056051254E-1,3.315289497E0,1.532073140E0
9.576644064E0,-4.250673056E-1,4.626056671E0,-1.683024883E0
9.586394064E0,-1.716846228E0,3.944478035E0,-2.622763872E0
9.596144064E0,-1.927123547E0,4.440104485E0,-3.829338551E0
9.605893959E0,6.394876242E-1,5.929986954E0,-2.776502371E0
9.615643959E0,2.968302727E0,7.108813286E0,-8.579615951E-1
9.625393959E0,3.390863895E0,7.672707558E0,1.234351397E0
9.635143855E0,1.660775185E0,7.567218781E0,4.848594666E0
9.644893855E0,1.365778089E0,7.057431221E0,5.767661095E0
9.654643751E0,1.981679678E0,6.683507919E0,4.449316025E0
9.664393751E0,1.552344799E0,5.701872826E0,1.851128101E0
9.674143751E0,9.251383543E-1,4.720293999E0,-1.123282194E0
9.683893647E0,8.707230091E-1,4.399554253E0,-2.484984875E0
9.693643543E0,1.351888657E0,3.758466721E0,-4.000084877E0
9.703393543E0,1.152756691E0,2.425168037E0,-4.467849255E0
9.713143543E0,1.097528338E0,1.860150337E0,-4.403283119E0
9.722893543E0,-1.431580186E-1,1.024641037E0,-3.068218708E0
9.732643439E0,-1.363887548E0,-1.974496841E-1,-1.646456718E0
9.742393439E0,-2.362461567E0,-3.816556931E-1,-1.433401108E-1
9.752143334E0,-2.656541586E0,2.346410751E-1,1.601015449E0
9.761893334E0,-1.615914226E0,4.740943909E-1,3.472467899E0
9.771643334E0,2.526162863E-1,1.790342331E0,4.069805145E0
9.781393230E0,1.504948378E0,3.423637390E0,3.756340981E0
9.791143230E0,1.274968386E0,4.258764267E0,2.230837345E0
9.800893126E0,9.406948686E-1,4.434264183E0,-7.123047113E-2
9.810643126E0,4.547278881E-1,4.096470833E0,-8.007234931E-1
9.820393022E0,5.405366421E-2,3.882859230E0,-9.556488991E-1
9.830143022E0,-2.332431078E-1,3.735261917E0,-1.752802372E0
9.839893022E0,-1.148087978E-1,3.566976547E0,-2.275394440E0
9.849642918E0,1.761935949E-1,3.952647209E0,-1.666989326E0
9.859392918E0,2.305107117E-1,4.130333900E0,-4.523204267E-1
9.869142814E0,6.579128504E-1,4.147311211E0,6.548676491E-1
9.878892814E0,6.767599583E-1,3.680602074E0,1.157239437E0
9.888642709E0,-6.522953510E-2,2.556481361E0,1.055250049E0
9.898392709E0,-5.834060907E-1,1.449283600E0,-3.092753291E-1
9.908142605E0,-7.520548701E-1,7.647047043E-1,-1.393214703E0
9.917892605E0,-8.856039047E-1,1.889019012E-1,-2.065204620E0
9.927642501E0,-8.627392650E-1,-6.077737808E-1,-2.683741570E0
9.937392501E0,-1.067527294E0,-1.209082603E0,-2.994426012E0
9.947142397E0,-1.111393213E0,-1.591291428E0,-2.787290096E0
9.956892397E0,-1.256057501E0,-1.842794418E0,-3.034553766E0
9.966642397E0,-1.353245020E0,-2.218745232E0,-3.183943510E0
9.976392293E0,-1.026699305E0,-2.608882904E0,-2.399575710E0
9.986142293E0,-9.748408794E-1,-2.703478813E0,-1.297490358E0
9.995892189E0,-1.532472134E0,-2.589862347E0,-9.531333447E-1
1.000564219E1,-1.936448812E0,-3.001344681E0,-3.652012944E-1
1.001539208E1,-1.501346588E0,-3.602906227E0,3.283014894E-1
1.002514208E1,-2.593800426E-1,-3.157338142E0,1.998280883E-1
1.003489198E1,7.857742310E-1,-2.467633724E0,5.020979643E-1
1.004464198E1,9.359924793E-1,-2.454423904E0,3.912195563E-1
1.005439188E1,4.490770102E-1,-2.656284332E0,4.086220264E-2
1.006414188E1,4.806971550E-2,-2.520755768E0,-5.230772495E-2
1.007389177E1,-1.517901421E-1,-2.308728218E0,1.382108033E-1
1.008364177E1,-3.740173578E-1,-2.151746273E0,-2.198740840E-3
1.009339167E1,-5.051700473E-1,-2.001754761E0,-1.461843252E-1
1.010314167E1,-5.907705426E-1,-1.481598854E0,2.962800860E-2
1.011289156E1,-3.405371904E-1,-7.234973907E-1,3.717519641E-1
1.012264156E1,-1.831518412E-1,1.740245819E-1,3.477258980E-1
1.013239146E1,-2.000650167E-1,9.598331451E-1,2.214885876E-2
1.014214146E1,-2.108119726E-1,1.471855164E0,-2.119658887E-1
1.015189136E1,-2.586967349E-1,2.028612137E0,-6.996105313E-1
1.016164125E1,-2.771533728E-1,2.442044258E0,-1.714604616E0
1.017139125E1,-8.881449699E-3,2.940063477E0,-2.617144585E0
1.018114115E1,6.254780293E-2,3.849977493E0,-1.973221779E0
1.019089115E1,6.015491486E-1,4.784010887E0,-1.046051502E0
1.020064104E1,1.921417236E0,5.345672607E0,-4.496883154E-1
1.021039104E1,2.538414001E0,5.598576546E0,1.082562208E-1
1.022014094E1,2.590775251E0,5.409589767E0,-3.917531967E-1
1.022989094E1,2.884044647E0,5.327429771E0,-8.743845224E-1
1.023964083E1,2.624465942E0,5.635255814E0,-7.202221155E-1
1.024939083E1,1.557084203E0,5.352410316E0,-4.182870388E-1
1.025914073E1,8.771923780E-1,4.889540672E0,1.069321036E-1
1.026889073E1,1.923793554E-1,4.398255348E0,1.784410596E0
1.027864063E1,6.981539726E-2,3.800793648E0,4.185118198E0
1.028839052E1,2.540869713E-1,4.189527512E0,6.275864601E0
1.029814052E1,7.566206455E-1,4.405531883E0,4.851049423E0
1.030789042E1,1.121124268E0,3.886701584E0,2.626409769E0
1.031764042E1,6.478956938E-1,2.883273125E0,-3.945354223E-1
1.032739031E1,-1.246684790E-1,6.237564087E-1,-2.619641781E0
1.033714031E1,-7.820239663E-1,-1.240528107E0,-4.379788399E0
1.034689021E1,-1.785453677E0,-1.336410522E0,-4.509618759E0
1.035664021E1,-2.517821312E0,-1.737326622E0,-2.923500776E0
1.036639010E1,-1.587253809E0,-1.494392395E0,-7.127531767E-1
1.037614000E1,5.138368607E-1,-2.732830048E-1,2.072938681E0
1.038589000E1,2.773460865E0,8.997964859E-1,3.118115902E0
1.039563990E1,3.485357523E0,1.283102989E0,3.170673609E0
1.040538990E1,2.549422264E0,1.113779068E0,8.881905675E-1
1.041513979E1,1.781955242E0,9.226827621E-1,-3.097639084E-1
1.042488969E1,1.481264591E0,1.461211205E0,-7.587833405E-1
1.043463969E1,9.208629131E-1,2.609876633E0,-2.438368797E0
1.044438958E1,1.370948553E-1,3.216123581E0,-4.114436626E0
1.045413958E1,1.640708447E-1,3.122603416E0,-4.538217545E0
1.046388948E1,2.366775274E-1,3.175061226E0,-4.111282825E0
1.047363948E1,6.841405630E-1,3.377443314E0,-2.635912418E0
1.048338938E1,1.380180717E0,3.288099289E0,-2.097482979E-1
1.049313927E1,1.410348654E0,2.459428787E0,2.696670532E0
1.050288927E1,3.545140028E-1,1.250210762E0,5.423531532E0
1.051263917E1,-2.666507661E-1,9.818801880E-1,6.081391335E0
1.052238906E1,-8.434599638E-2,1.567432404E0,4.625812531E0
1.053213906E1,-4.983760417E-1,2.195736885E0,2.890175343E0
1.054188896E1,-1.027616262E0,2.334321976E0,9.736332893E-1
1.055163896E1,-1.537334681E0,2.170168877E0,1.440104693E-1
1.056138886E1,-1.495417595E0,2.204843521E0,5.608310103E-1
1.057113875E1,-8.301430941E-1,2.155873299E0,1.242941976E0
1.058088875E1,-3.778451085E-1,2.223703384E0,1.636842847E0
1.059063865E1,-3.992860615E-1,2.360366821E0,1.131284595E0
1.060038865E1,-7.920700908E-1,1.823720932E0,6.079188585E-1
1.061013854E1,-1.383065581E0,1.093130112E0,-6.668651849E-2
1.061988844E1,-1.809505820E0,1.033251762E0,-8.338100910E-1
1.062963844E1,-1.760038495E0,1.451426506E0,-9.331626296E-1
1.063938833E1,-1.213044643E0,1.776110649E0,-5.228878260E-1
1.064913813E1,-9.374502897E-1,2.029662132E0,5.514216423E-1
1.065888823E1,-3.819659352E-1,1.886302948E0,9.247328043E-1
1.066863813E1,-4.494965076E-2,1.257646561E0,1.101967812E0
1.067838813E1,1.698539257E-1,8.946609497E-1,1.542331457E0
1.068813802E1,5.510585904E-1,4.702558517E-1,1.494479060E0
1.069788792E1,1.288660526E0,4.809684753E-1,1.142513275E0
1.070763792E1,2.099799156E0,7.108249664E-1,1.697438121E0
1.071738781E1,1.112596393E0,1.880025864E-1,2.670675516E0
1.072713771E1,-1.277160347E-1,-9.862804413E-1,2.332844257E0
1.073688771E1,-3.190241456E-1,-1.475444794E0,2.283323050E0
1.074663760E1,-2.542680800E-1,-9.990749359E-1,2.811594248E0
1.075638750E1,-3.320027590E-1,-7.989788055E-1,2.305579424E0
1.076613750E1,1.830792427E-2,-4.262456894E-1,1.734605908E0
1.077588740E1,2.628870308E-2,4.574880600E-1,1.204450250E0
1.078563729E1,1.061737612E-1,6.730833054E-1,8.471752405E-1
1.079538729E1,-4.149563015E-1,2.489013672E-1,7.596081495E-1
1.080513719E1,-1.369109511E0,1.212186813E-1,1.946079731E-2
1.081488708E1,-1.374531627E0,1.174020767E-1,-8.391948938E-1
1.082463708E1,-1.149076223E0,-1.416683197E-2,-1.072144985E0
1.083438698E1,-4.517791569E-1,6.854724884E-2,-6.291851997E-1
1.084413688E1,3.537436724E-1,3.244400024E-1,5.986994505E-2
1.085388688E1,6.175261140E-1,3.256607056E-2,4.485909939E-1
1.086363677E1,-1.645036489E-1,-1.004329681E0,1.314365268E0
1.087338667E1,-1.437192321E0,-1.458685875E0,2.340721607E0
1.088313667E1,-1.673042774E0,-8.664951324E-1,1.895215034E0
1.089288656E1,-8.469905853E-1,-1.371717453E-1,4.468571544E-1
1.090263646E1,-5.979744345E-2,7.112665176E-1,-4.583569169E-1
1.091238646E1,9.920349121E-1,1.848552704E0,-5.167470574E-1
1.092213636E1,1.808342934E0,2.118165016E0,-4.319997430E-1
1.093188625E1,2.546632767E0,1.771764755E0,-1.149134755E0
1.094163625E1,2.660293579E0,1.271080017E0,-1.646515250E0
1.095138615E1,2.158658981E0,5.660429001E-1,-2.600408554E0
1.096113604E1,1.657333851E0,-5.516519547E-1,-3.567044973E0
1.097088604E1,9.312761426E-1,-1.989843369E0,-3.063546181E0
1.098063594E1,1.005943418E-1,-2.668792725E0,-1.624772668E0
1.099038583E1,-8.441934586E-1,-2.554790497E0,7.378383279E-1
1.100013573E1,-1.920087218E0,-2.240491867E0,1.568097115E0
1.100988573E1,-1.578635216E0,-2.016294956E0,1.600429296E0
1.101963563E1,-5.869902372E-1,-1.888019562E0,1.774675846E0
1.102938552E1,2.016309351E-1,-2.307608604E0,1.092556953E0
1.103913552E1,4.939170480E-1,-3.014296532E0,-5.132555962E-3
1.104888542E1,1.890455782E-1,-3.714954376E0,-8.854565620E-1
1.105863531E1,7.552765310E-2,-3.768334389E0,-1.996216774E0
1.106838521E1,3.377994597E-1,-3.322891235E0,-2.548759460E0
1.107813521E1,6.672211289E-1,-3.104127884E0,-3.040936947E0
1.108788511E1,4.573320448E-1,-3.447532654E0,-3.702859879E0
1.109763500E1,-3.598034680E-1,-4.358814240E0,-3.867759228E0
1.110738500E1,-1.187703848E0,-5.448628902E0,-3.703824520E0
1.111713490E1,-1.659158349E0,-6.119306564E0,-3.031505108E0
1.112688479E1,-9.955499172E-1,-5.851378441E0,-1.740463972E0
1.113663469E1,2.185129672E-1,-4.834611416E0,-1.027923465E0
1.114638469E1,9.516628385E-1,-4.031796455E0,-4.393172264E-2
1.115613458E1,1.187731981E0,-3.613811493E0,5.316224098E-1
1.116588448E1,1.150256515E0,-3.413631439E0,2.207469940E-1
1.117563448E1,1.193975568E0,-3.139242172E0,1.512768269E-1
1.118538438E1,1.373087406E0,-3.150591373E0,2.451958656E-1
1.119513427E1,1.700771570E0,-3.332257748E0,1.530499458E-1
1.120488417E1,1.748773336E0,-3.647329330E0,-2.309000492E-1
1.121463417E1,1.351572275E0,-3.587906361E0,-9.672753811E-1
1.122438406E1,8.985995054E-1,-3.398498535E0,-1.532114029E0
1.123413396E1,7.013937235E-1,-3.601044178E0,-1.506822467E0
1.124388386E1,3.654080629E-1,-3.966217041E0,-1.201214314E0
1.125363386E1,-2.225990891E-1,-4.132244110E0,-6.912400723E-1
1.126338375E1,-9.176100492E-1,-4.210456848E0,-4.689702988E-1
1.127313365E1,-1.354252696E0,-3.954582214E0,-8.050839901E-1
1.128288354E1,-1.414793491E0,-3.249174595E0,-1.719383001E0
1.129263354E1,-1.111022234E0,-2.109927177E0,-2.780304193E0
1.130238344E1,-3.534087539E-1,-5.711736679E-1,-3.516955376E0
1.131213333E1,6.598392725E-1,9.319667816E-1,-3.427968502E0
1.132188323E1,1.395171881E0,2.065218925E0,-2.881439447E0
1.133163323E1,1.525694013E0,2.661359787E0,-2.098874569E0
1.134138313E1,1.121277213E0,2.540491104E0,-1.371655703E0
1.135113302E1,3.537661433E-1,1.822167397E0,-3.540633917E-1
1.136088292E1,-2.003199756E-1,1.243072510E0,3.517146111E-1
1.137063292E1,-2.633216381E-1,1.323419571E0,6.782162189E-1
1.138038281E1,-2.863411903E-1,1.834394455E0,3.833885193E-1
1.139013271E1,-3.041867018E-1,2.203516006E0,-1.278346777E-1
1.139988260E1,-2.663394213E-1,2.099303246E0,-6.921382546E-1
1.140963260E1,-3.087025881E-1,1.832266808E0,-1.138615131E0
1.141938250E1,-4.127351642E-1,1.462755203E0,-1.182461739E0
1.142913240E1,-4.176034331E-1,7.807769775E-1,-1.044178724E0
1.143888229E1,-4.683176875E-1,-7.533073425E-2,-1.205665588E0
1.144863229E1,-2.464242876E-1,-7.583246231E-1,-1.151309848E0
1.145838219E1,1.767157763E-1,-1.277795792E0,-8.498169184E-1
1.146813208E1,3.305994868E-1,-1.950757027E0,-2.878464460E-1
1.147788198E1,2.551783621E-1,-2.686403275E0,1.653603315E-1
1.148763188E1,1.930350214E-1,-3.085733891E0,6.208932400E-1
1.149738188E1,2.243812680E-1,-3.212939262E0,1.062965512E0
1.150713177E1,7.445080578E-2,-3.308195114E0,9.282684326E-1
1.151688167E1,-2.328757495E-1,-2.981753826E0,3.300249577E-1
1.152663156E1,-2.028340250E-1,-2.471690655E0,-1.965652704E-1
1.153638156E1,-1.473918110E-1,-2.059020042E0,-9.186390638E-1
1.154613146E1,-3.770829737E-2,-1.433929443E0,-1.547366142E0
1.155588136E1,2.373647690E-1,-7.112026215E-1,-2.043765545E0
1.156563125E1,7.806941867E-1,-6.702327728E-2,-2.203803778E0
1.157538115E1,9.753667116E-1,3.614807129E-1,-1.887027144E0
1.158513115E1,6.457673311E-1,2.638874054E-1,-1.443588018E0
1.159488104E1,-1.262127161E-1,-1.613082886E-1,-9.708135724E-1
1.160463094E1,-2.355503738E-1,-5.478811264E-1,-3.409616947E-1
1.161438083E1,-5.205868483E-1,-7.445344925E-1,6.415152550E-2
1.162413073E1,-6.537053585E-1,-3.959598541E-1,2.364209890E-1
1.163388073E1,-5.011286736E-1,6.918716431E-2,3.461159468E-1
1.164363063E1,-9.955579042E-2,5.219459534E-1,4.341962337E-1
1.165338052E1,3.294735551E-1,9.874515533E-1,1.190491676E0
1.166313042E1,6.688685417E-1,1.204367638E0,1.647871494E0
1.167288042E1,7.691797018E-1,9.256572723E-1,1.370148063E0
1.168263031E1,5.640668869E-1,3.508710861E-1,8.965750933E-1
1.169238021E1,2.624043524E-1,-1.148271561E-1,3.845428228E-1
1.170213010E1,-9.800675511E-2,-2.161960602E-1,3.699779510E-1
1.171188000E1,-3.516379595E-1,-1.288003922E-1,3.533896208E-1
1.172163000E1,-4.835115373E-1,4.432678223E-3,2.568380833E-1
1.173137990E1,-4.893793762E-1,2.175531387E-1,3.312680721E-1
1.174112979E1,-3.833150864E-1,3.423204422E-1,4.359086752E-1
1.175087969E1,-1.994769871E-1,3.333349228E-1,9.372091293E-1
1.176062958E1,-1.616650522E-1,3.223094940E-1,1.028927922E0
1.177037948E1,-2.255851924E-1,3.884115219E-1,1.022301197E0
1.178012948E1,-1.937239170E-1,5.320444107E-1,9.122434855E-1
1.178987938E1,-5.666601658E-2,6.531209946E-1,5.134085417E-1
1.179962927E1,-2.759516239E-3,5.707683563E-1,1.861709356E-1
1.180937917E1,-2.342430949E-1,5.346412659E-1,-8.993399143E-2
1.181912906E1,-4.440449476E-1,5.382442474E-1,-2.174246311E-1
1.182887906E1,-3.713957667E-1,6.771764755E-1,-1.643021107E-1
1.183862896E1,-1.005498916E-1,6.143712997E-1,8.590221405E-3
1.184837886E1,3.840017319E-2,3.689260483E-1,-1.111330986E-1
1.185812875E1,3.029927611E-2,6.224822998E-2,-1.669850349E-1
1.186787865E1,-1.841277033E-1,-1.557188034E-1,-7.292509079E-3
1.187762854E1,-2.812772989E-1,-1.756811142E-1,1.496175528E-1
1.188737854E1,-2.970031500E-1,-6.271743774E-2,1.445826292E-1
1.189712844E1,-2.689172029E-1,1.518802643E-1,-7.510018349E-2
1.190687833E1,-1.666878015E-1,2.366619110E-1,-2.033172846E-1
1.191662823E1,-7.819506526E-2,2.951183319E-1,-2.130627632E-1
1.192637813E1,-5.871836841E-2,2.035398483E-1,-2.242847681E-1
1.193612802E1,-1.108789891E-1,1.272392273E-1,-5.895143747E-1
1.194587802E1,-7.202506065E-2,7.590961456E-2,-8.818804622E-1
1.195562792E1,6.094358861E-3,-6.525325775E-2,-9.545955062E-1
1.196537781E1,1.549119651E-1,-1.817798615E-1,-7.912909389E-1
1.197512771E1,3.296673000E-1,-2.452936172E-1,-7.274382114E-1
1.198487761E1,4.316534996E-1,-2.465257645E-1,-5.898456573E-1
1.199462761E1,4.380605519E-1,-3.263797760E-1,-5.226005316E-1
1.200437750E1,2.723718286E-1,-4.463510513E-1,-4.502294064E-1
1.201412740E1,5.194944143E-2,-6.179485321E-1,-2.035048008E-1
1.202387729E1,-7.953187823E-2,-6.428318024E-1,4.033684731E-3
1.203362719E1,-1.982519478E-1,-6.028718948E-1,3.067877293E-1
1.204337708E1,-2.452433705E-1,-5.535240173E-1,4.594742060E-1
1.205312708E1,-2.552009821E-1,-5.547103882E-1,5.406080484E-1
1.206287698E1,-3.016284406E-1,-5.824832916E-1,5.744787455E-1
1.207262688E1,-5.724365115E-1,-6.556787491E-1,3.973152637E-1
1.208237677E1,-8.045282960E-1,-6.066923141E-1,6.866657734E-2
1.209212667E1,-7.566062212E-1,-4.547739029E-1,-2.951180935E-1
1.210187656E1,-6.272143126E-1,-3.079900742E-1,-7.042491436E-2
1.211162646E1,-5.583257079E-1,-1.567573547E-1,1.394972801E-1
1.212137646E1,-4.466522336E-1,-7.754325867E-2,2.469729185E-1
1.213112636E1,-2.796185613E-1,-6.385803223E-3,7.553318739E-1
1.214087625E1,-2.586187124E-1,6.819152832E-2,1.040736675E0
1.215062615E1,-1.639216542E-1,2.820291519E-1,8.566664457E-1
1.216037604E1,-5.012020469E-2,5.774021149E-1,6.776406765E-1
1.217012594E1,-9.026044607E-2,8.542451859E-1,4.513396025E-1
1.217987594E1,-1.210590601E-1,9.513587952E-1,-2.735817432E-2
1.218962583E1,-2.303735018E-1,9.130935669E-1,-6.141906977E-1
1.219937573E1,-2.381492257E-1,8.000097275E-1,-1.040897012E0
1.220912563E1,-1.456961334E-1,7.293596268E-1,-1.265629888E0
1.221887552E1,8.467663825E-2,7.963495255E-1,-1.289623499E0
1.222862542E1,3.034862280E-1,8.429040909E-1,-1.252294183E0
1.223837531E1,4.887188375E-1,7.443742752E-1,-1.061075926E0
1.224812531E1,5.583464503E-1,6.051435471E-1,-5.304148197E-1
1.225787521E1,5.208103657E-1,4.698295593E-1,2.829194069E-3
1.226762510E1,2.018240243E-1,3.377237320E-1,2.156738043E-1
1.227737500E1,-1.449731290E-1,2.325878143E-1,3.740285635E-1
1.228712490E1,-1.374605000E-1,1.599845886E-1,3.124964237E-2
1.229687479E1,2.669513226E-2,1.354751587E-1,-4.923090935E-1
1.230662469E1,1.222614646E-1,-1.071710587E-1,-1.163521767E0
1.231637469E1,2.430872619E-1,-4.974842072E-1,-1.766936779E0
1.232612458E1,4.014638364E-1,-6.767187119E-1,-2.469347954E0
1.233587448E1,4.727215171E-1,-7.914342880E-1,-2.878562927E0
1.234562438E1,1.112276614E-1,-1.060340881E0,-2.662981033E0
1.235537427E1,-6.619596481E-2,-1.435307503E0,-1.827536702E0
1.236512417E1,1.833364367E-2,-1.528777122E0,-1.140061140E0
1.237487406E1,3.119247556E-1,-1.195075989E0,-1.005331278E0
1.238462406E1,9.654855728E-1,-5.353460312E-1,-1.292249560E0
1.239437396E1,1.623738766E0,-1.989355087E-1,-2.117597103E0
1.240412386E1,2.267258883E0,-4.657869339E-1,-2.834432840E0
1.241387375E1,2.558517456E0,-6.330490112E-1,-3.728305817E0
1.242362365E1,2.608181715E0,-1.035336494E0,-3.311834812E0
1.243337354E1,1.560541868E0,-2.017105103E0,-4.259079695E-1
1.244312344E1,-2.014587522E-1,-3.391414165E0,1.925022721E0
1.245287344E1,-1.449271441E0,-3.897586823E0,2.688512802E0
1.246262333E1,-1.757803798E0,-3.569239616E0,2.106095314E0
1.247237323E1,-1.590808153E0,-3.067752838E0,5.585026741E-1
1.248212313E1,-1.111685514E0,-2.699116707E0,-2.232396603E-1
1.249187302E1,-5.272677541E-1,-2.777727127E0,3.745985031E-2
1.250162292E1,1.768398881E-1,-2.994442940E0,-5.060398579E-2
1.251137281E1,7.800195813E-1,-3.155524254E0,-3.316880465E-1
1.252112281E1,8.565459251E-1,-3.392319679E0,-7.794013023E-1
1.253087271E1,7.205368280E-1,-3.690318108E0,-1.217868805E0
1.254062261E1,6.509238482E-1,-3.567550659E0,-1.431002140E0
1.255037250E1,3.159480691E-1,-3.350378990E0,-1.062929273E0
1.256012240E1,-8.945438266E-2,-3.276422977E0,-7.031127214E-1
1.256987229E1,-6.381319165E-1,-3.188817024E0,-5.737149715E-2
1.257962219E1,-7.534456253E-1,-2.724585056E0,6.050891876E-1
1.258937208E1,-5.269780159E-1,-2.303330421E0,6.443163157E-1
1.259912208E1,-1.332362741E-1,-2.025769711E0,3.015826941E-1
1.260887198E1,3.446602225E-1,-1.787648201E0,-7.858037949E-2
1.261862188E1,8.847003579E-1,-1.560204506E0,-3.514180779E-1
1.262837177E1,1.102849722E0,-1.819518089E0,-4.222947359E-1
1.263812167E1,1.108524323E0,-2.343271255E0,-2.732732296E-1
1.264787156E1,9.420186281E-1,-3.131100655E0,-4.224215746E-1
1.265762146E1,1.068496853E-1,-3.936842918E0,-4.036001563E-1
1.266737146E1,-6.797559261E-1,-3.988669872E0,-9.113328457E-1
1.267712136E1,-1.246596575E0,-3.928709030E0,-1.676429510E0
1.268687125E1,-2.324826241E0,-3.871006012E0,-2.174220562E0
1.269662115E1,-2.283549070E0,-2.970842838E0,-2.659238577E0
1.270637104E1,-1.485051990E0,-2.488382816E0,-2.879005432E0
1.271612094E1,-5.516254902E-1,-2.375374794E0,-2.631655931E0
1.272587083E1,2.812713981E-1,-2.664992332E0,-1.659167767E0
1.273562073E1,9.358299971E-1,-3.211368561E0,-8.789324164E-1
1.274537073E1,1.575496674E0,-3.694735527E0,-1.546504140E0
1.275512063E1,1.818443775E0,-3.128374100E0,-2.348603487E0
1.276487052E1,9.734618068E-1,-2.055834293E0,1.726023674E0
1.277462042E1,-2.379921973E-1,-8.337745667E-1,3.864508867E0
1.278437031E1,-1.243628383E0,9.421653748E-1,3.771786690E0
1.279412021E1,-2.023163795E0,1.969841003E0,3.224142551E0
1.280387011E1,-2.258988857E0,2.414986610E0,1.920572519E0
1.281362000E1,-1.393853903E0,2.526766777E0,1.071518302E0
1.282337000E1,-4.866955280E-1,2.052256584E0,1.072490513E-1
1.283311990E1,1.361402869E-1,1.236123085E0,-1.299144626E0
1.284286979E1,1.671886444E0,1.295730591E0,-2.078761578E0
1.285261969E1,1.654125929E0,1.717576027E0,-9.114735126E-1
1.286236958E1,9.502294064E-1,2.001892090E0,-2.217561156E-1
1.287211948E1,4.053267837E-1,1.290015221E0,4.190642834E-1
1.288186938E1,-1.364050508E-1,1.105342865E0,1.303479910E0
1.289161927E1,-4.982190132E-1,9.475603104E-1,1.800116062E0
1.290136917E1,-5.671228170E-1,8.466281891E-1,1.645555019E0
1.291111917E1,2.633602619E-1,1.436701775E0,5.549673438E-1
1.292086906E1,2.408527136E-1,1.165163040E0,4.368875921E-1
1.293061896E1,-3.894230723E-1,1.023281097E0,-1.119657457E-1
1.294036886E1,-8.565981984E-1,8.322229385E-1,-1.875145435E0
1.295011875E1,-6.349914074E-1,6.855487823E-1,-2.253508806E0
1.295986865E1,2.110929042E-1,8.485403061E-1,-1.334754705E0
1.296961854E1,-2.962891459E-1,8.381795883E-1,5.056228042E-1
1.297936844E1,-1.327083349E0,2.266149521E-1,2.385411501E0
1.298911844E1,-2.406229496E0,-1.906909943E-1,3.245431900E0
1.299886833E1,-1.857447147E0,-7.454376221E-1,3.949339628E0
1.300861823E1,-5.198749900E-1,-8.438940048E-1,2.087410212E0
1.301836813E1,1.070993543E0,-6.681442261E-3,-7.890166044E-1
1.302811802E1,1.552746296E0,5.902671814E-1,-3.147491932E0
1.303786792E1,2.114135742E0,1.350952148E0,-4.924616337E0
1.304761781E1,3.717590094E0,1.809893608E0,-5.925711632E0
1.305736771E1,4.427391529E0,1.192908287E0,-4.388381958E0
1.306711760E1,2.116670847E0,4.192819595E-1,-1.249058366E0
1.307686760E1,-2.559144020E0,-8.615522385E-1,5.711356163E0
1.308661750E1,-3.217026234E0,-1.876376152E0,1.254451084E1
1.309636740E1,-1.632203817E0,-1.950452805E0,1.333178711E1
1.310611729E1,1.000193357E0,-8.735246658E-1,9.303253174E0
1.311586719E1,3.760483027E0,1.234801292E0,4.425100803E0
1.312561708E1,3.852659225E0,2.498044014E0,2.910505533E0
1.313536698E1,2.954329491E0,2.594241142E0,1.464662313E0
1.314511688E1,2.599515438E0,2.911931992E0,-1.524441242E0
1.315486677E1,1.638016820E0,2.543879509E0,-2.129531860E0
1.316461677E1,9.656324983E-2,1.037641525E0,-2.520413399E-1
1.317436667E1,-2.372833967E0,8.699226379E-2,2.090556383E0
1.318411656E1,-2.803761244E0,-2.401666641E-1,4.587283611E0
1.319386646E1,-1.199562311E0,1.545782089E-1,5.765421391E0
1.320361636E1,-3.874079585E-1,3.532543182E-1,5.838645935E0
1.321336625E1,-8.679417372E-1,3.234148026E-1,5.594503880E0
1.322311615E1,-8.619955182E-1,1.392066956E0,3.493033409E0
1.323286604E1,-4.667329490E-1,1.858236313E0,-1.111325264E0
1.324261594E1,1.192163229E-1,1.702122688E0,-5.907364368E0
1.325236583E1,1.053546190E0,1.298930168E0,-6.739758968E0
1.326211583E1,3.242468357E0,1.944927216E0,-5.401013374E0
1.327186573E1,4.752210617E0,2.144757271E0,-2.650546551E0
1.328161563E1,3.837661505E0,2.511670113E0,-9.094393253E-2
1.329136552E1,1.431730509E0,3.031794548E0,1.151727796E0
1.330111542E1,-9.235194325E-1,2.610575676E0,1.149523854E0
1.331086531E1,-2.379141569E0,2.705188751E0,6.858721972E-1
1.332061521E1,-2.576376200E0,2.485890388E0,-1.560318470E-2
1.333036510E1,-2.450311184E0,2.598395348E0,-8.662157059E-1
1.334011500E1,-2.132378817E0,3.551296234E0,-1.231921077E0
1.334986490E1,-1.211737990E0,4.888665199E0,-1.458557487E0
1.335961490E1,-6.441679597E-1,5.571475983E0,-3.512409210E0
1.336936479E1,-2.081362754E-1,5.553700447E0,-5.146419525E0
1.337911469E1,2.459933423E-2,5.759316444E0,-4.974269867E0
1.338886458E1,3.981870711E-1,5.904210091E0,-4.938993931E0
1.339861448E1,4.318003058E-1,5.622525215E0,-3.707337856E0
1.340836438E1,4.530401155E-2,5.662243843E0,-1.509432197E-1
1.341811427E1,2.973533869E-1,6.309051514E0,2.086876869E0
1.342786417E1,7.613151073E-1,6.940758705E0,3.149472713E0
1.343761406E1,6.740635633E-1,6.826613426E0,3.534264326E0
1.344736396E1,-4.275129139E-1,5.468211174E0,4.493563652E0
1.345711386E1,-2.069338799E0,3.978250504E0,5.113532066E0
1.346686386E1,-3.447184324E0,3.469328880E0,4.070561886E0
1.347661375E1,-3.787859917E0,3.527401924E0,2.301732779E0
1.348636365E1,-3.578255177E0,3.668762207E0,9.375913143E-1
1.349611354E1,-2.919094086E0,4.120343208E0,2.221041322E-1
1.350586344E1,-1.568332076E0,4.316555023E0,-5.805445910E-1
1.351561333E1,-4.280484915E-1,4.142494202E0,-1.810572624E0
1.352536323E1,2.581679821E-1,3.717229843E0,-3.619215965E0
1.353511313E1,9.357721806E-1,3.006214142E0,-4.541624069E0
1.354486302E1,1.447492957E0,1.735882759E0,-4.877902985E0
1.355461292E1,1.320947170E0,-1.811017990E-1,-3.395567894E0
1.356436281E1,8.421915770E-1,-1.521707535E0,-1.921183228E0
1.357411271E1,6.586755812E-2,-2.599022865E0,-1.121760607E-1
1.358386271E1,-4.613973796E-1,-3.467607498E0,1.975628376E0
1.359361260E1,-6.460068226E-1,-3.999983788E0,2.675362110E0
1.360336250E1,-2.241734266E-1,-3.929537773E0,2.604184151E0
1.361311240E1,2.682577372E-1,-3.533747673E0,1.611374378E0
1.362286229E1,6.843861938E-1,-3.199033737E0,-6.910145283E-2
1.363261219E1,1.109346390E0,-3.206144810E0,-1.113317728E0
1.364236208E1,1.112678051E0,-3.198160648E0,-1.656743526E0
1.365211198E1,9.826025367E-1,-3.086806297E0,-2.146298409E0
1.366186188E1,7.737781405E-1,-2.662520409E0,-2.037787676E0
1.367161177E1,5.169286728E-1,-2.360925674E0,-1.729338169E0
1.368136167E1,-1.274536550E-2,-2.079416275E0,-1.034033418E0
1.369111156E1,-2.239932865E-1,-1.901353359E0,-1.298949242E0
1.370086146E1,-1.888671368E-1,-2.029318333E0,-1.514784813E0
1.371061136E1,1.813864410E-1,-1.989666939E0,-1.731965661E0
1.372036125E1,3.539519906E-1,-2.002063751E0,-2.444355965E0
1.373011125E1,3.289557695E-1,-2.042399406E0,-2.701505184E0
1.373986115E1,1.780817211E-1,-1.759725571E0,-2.434295416E0
1.374961104E1,7.144033909E-3,-1.582361221E0,-1.317146182E0
1.375936094E1,-4.114185572E-1,-1.618287086E0,4.702591300E-1
1.376911083E1,-6.111473441E-1,-1.528919220E0,2.436206579E0
1.377886073E1,-6.429420114E-1,-1.278868675E0,3.328841925E0
1.378861063E1,-8.988492489E-1,-9.323186874E-1,3.005239964E0
1.379836052E1,-1.313137531E0,-3.166570663E-1,1.756130576E0
1.380811042E1,-1.422190547E0,5.300703049E-1,-8.904974908E-3
1.381786031E1,-1.380773544E0,1.313920021E0,-1.941603661E0
1.382761021E1,-1.147801518E0,2.292911530E0,-2.968788385E0
1.383736010E1,-1.295099020E0,3.560145378E0,-3.030041456E0
1.384711000E1,-1.181283712E0,5.062634468E0,-3.699398994E0
1.385685990E1,-3.813287020E-1,6.238677979E0,-5.039594650E0
1.386660979E1,5.759403706E-1,7.024234772E0,-5.411298275E0
1.387635979E1,1.429193497E0,7.816128731E0,-5.000730515E0
1.388610969E1,1.731695414E0,8.253239632E0,-4.474067211E0
1.389585958E1,2.227948427E0,8.220829964E0,-4.133731365E0
1.390560948E1,2.774070263E0,8.235092163E0,-2.302405596E0
1.391535938E1,2.631004095E0,8.250076294E0,-2.617182732E-1
1.392510927E1,1.958211303E0,7.586236000E0,1.445789218E0
1.393485917E1,1.621185064E0,6.790836334E0,2.583576441E0
1.394460906E1,1.475164413E0,5.839585304E0,2.837415457E0
1.395435896E1,1.593044043E0,4.985262871E0,3.365194321E0
1.396410886E1,2.138644934E0,4.451968193E0,3.382218838E0
1.397385875E1,3.079848051E0,3.878512383E0,2.330003977E0
1.398360865E1,3.476323128E0,3.342721939E0,6.086744070E-1
1.399335854E1,2.941994667E0,2.475831985E0,-6.102977991E-1
1.400310844E1,2.017500401E0,1.903377533E0,-1.831452370E0
1.401285833E1,1.229840755E0,1.642625809E0,-2.149817228E0
1.402260823E1,-6.544167995E-1,1.109461784E0,-1.102283716E0
1.403235813E1,-2.353114843E0,1.305475235E-1,2.146444559E0
1.404210802E1,-1.878810525E0,-3.798217773E-1,5.048758984E0
1.405185792E1,-9.507912397E-1,-2.817726135E-1,6.357524872E0
1.406160781E1,5.976088643E-1,2.439107895E-1,6.195554733E0
1.407135771E1,2.490064621E0,8.946695328E-1,5.913232327E0
1.408110761E1,2.705369234E0,1.158457756E0,5.073984146E0
1.409085750E1,1.556909561E0,7.335224152E-1,3.686589718E0
1.410060740E1,-1.691341400E-1,9.575204849E-1,2.747968197E0
1.411035729E1,-1.456860781E0,1.095412254E0,1.475025654E0
1.412010719E1,-2.518685102E0,8.588848114E-1,6.060733795E-1
1.412985708E1,-3.283551931E0,7.375125885E-1,-2.387189865E-2
1.413960698E1,-3.524699450E0,2.873678207E-1,1.688131094E-1
1.414935688E1,-3.628293276E0,6.385898590E-2,3.019815683E-1
1.415910677E1,-2.567768097E0,3.511190414E-1,2.546082735E-1
1.416885677E1,-1.595168710E0,6.697664261E-1,8.581094146E-1
1.417860667E1,-4.407963455E-1,6.913261414E-1,1.807564497E-1
1.418835656E1,5.585225821E-1,6.124496460E-2,-6.769812107E-1
1.419810646E1,6.592791080E-1,7.569389343E-1,-1.400215387E0
1.420785636E1,7.804483175E-2,2.108295441E0,-3.867606401E0
1.421760625E1,-2.047483027E-1,2.183456421E0,-5.122243404E0
1.422735615E1,-6.061333418E-2,1.122727394E0,-4.348546028E0
1.423710604E1,3.822872043E-2,-3.753280640E-2,-3.059311152E0
1.424685594E1,-1.175883859E-1,-1.073156357E0,-2.804368973E0
1.425660583E1,-9.597435594E-2,-1.747074127E0,-2.391822338E0
1.426635573E1,4.151382148E-1,-2.098320961E0,-8.408790827E-1
1.427610563E1,3.948137462E-1,-2.215479851E0,5.602780581E-1
1.428585552E1,1.378456056E-1,-2.375172615E0,1.290546775E0
1.429560542E1,-6.853390932E-1,-2.727598667E0,2.316762686E0
1.430535531E1,-1.566888332E0,-2.544908524E0,2.663158417E0
1.431510521E1,-1.780126572E0,-2.470456123E0,2.528953552E0
1.432485511E1,-1.554138422E0,-1.802684307E0,1.717057467E0
1.433460500E1,-1.138015747E0,-1.130442619E0,8.753416538E-1
1.434435490E1,-2.898781896E-1,-7.450056076E-1,5.777045488E-1
1.435410479E1,5.427393317E-1,-9.149036407E-1,5.055815578E-1
1.436385469E1,1.220107198E0,-1.153297424E0,8.833876848E-1
1.437360458E1,1.395307541E0,-1.241646767E0,1.255735397E0
1.438335448E1,6.483627558E-1,-1.271029472E0,1.723492622E0
1.439310438E1,-6.035392731E-2,-1.359756470E0,2.063213825E0
1.440285427E1,-4.767925143E-1,-1.430930138E0,1.870196581E0
1.441260417E1,-9.719363451E-1,-1.799975395E0,2.392466307E0
1.442235406E1,-1.379169345E0,-2.457250118E0,3.567063570E0
1.443210396E1,-1.358528018E0,-2.714941025E0,4.657165527E0
1.444185386E1,-1.286044955E0,-2.848656654E0,4.889364243E0
1.445160365E1,-1.102664351E0,-2.524930000E0,4.392919540E0
1.446135354E1,-1.054845899E-1,-1.957965851E0,2.267929554E0
1.447110344E1,1.577412128E0,-1.065514565E0,3.185486197E-1
1.448085333E1,2.083985806E0,-1.085266113E0,5.924597383E-2
1.449060323E1,1.561821938E0,-9.721174240E-1,-3.608384728E-1
1.450035313E1,1.526065588E0,7.390527725E-1,-5.229434371E-1
1.451010302E1,1.743988633E0,1.875685692E0,-4.786579609E-1
1.451985292E1,1.553226233E0,2.298632622E0,-5.557975769E-1
1.452960281E1,2.727898955E-1,2.343528748E0,-1.123094559E0
1.453935271E1,-1.621669412E0,1.728743553E0,-1.618544817E0
1.454910261E1,-2.917391300E0,1.414364815E0,-9.777450562E-2
1.455885250E1,-2.310348511E0,8.100872040E-1,1.931597233E0
1.456860240E1,-3.472346663E-1,1.033636093E0,3.080793142E0
1.457835229E1,6.311476231E-1,2.243453026E0,4.033390522E0
1.458810219E1,1.787860274E0,3.186100960E0,3.582594156E0
1.459785208E1,2.599920750E0,3.451108932E0,4.687246084E-1
1.460760198E1,2.909493923E0,3.647740364E0,-2.954278946E0
1.461735188E1,1.845783591E0,2.809580803E0,-5.787842274E0
1.462710177E1,1.492886096E-1,1.674983978E0,-6.742604733E0
1.463685167E1,-1.591184974E0,1.166218758E0,-4.405702114E0
1.464660156E1,-2.178942204E0,1.088092804E0,-1.536125064E0
1.465635146E1,-1.588664770E0,9.106273651E-1,-4.248856902E-1
1.466610136E1,-1.836724132E-1,8.018550873E-1,4.236351252E-1
1.467585125E1,1.022351027E0,6.129760742E-1,1.489163637E0
1.468560115E1,1.522127390E0,-7.793140411E-2,2.278599501E0
1.469535104E1,1.184425950E0,-9.074068069E-1,1.891659141E0
1.470510094E1,5.671637654E-1,-1.263081551E0,7.366206646E-1
1.471485083E1,4.936466217E-1,-8.299179077E-1,-1.060083628E0
1.472460073E1,6.064096689E-1,-5.150117874E-1,-3.269561291E0
1.473435052E1,2.115357816E-1,-7.131242752E-1,-4.855981350E0
1.474410042E1,-8.589791059E-1,-1.185178757E0,-4.522722244E0
1.475385031E1,-1.956522703E0,-2.000083923E0,-2.454428196E0
1.476360021E1,-2.137809753E0,-2.551447868E0,-7.181859016E-2
1.477335010E1,-1.993517160E0,-3.006822586E0,1.812614202E0
1.478310000E1,-9.187314510E-1,-3.357895374E0,2.967279196E0
1.479284990E1,8.370183706E-1,-3.351722717E0,3.411505222E0
1.480259979E1,1.674564719E0,-3.652043343E0,2.841116190E0
1.481234969E1,1.433448195E0,-4.674937725E0,1.975896120E0
1.482209958E1,1.036370039E0,-5.551424980E0,4.688501358E-1
1.483184948E1,6.585667729E-1,-5.956861496E0,-1.129984617E0
1.484159938E1,2.523372173E-1,-5.760307312E0,-2.730448246E0
1.485134927E1,-2.680308223E-1,-5.235988617E0,-3.891101360E0
1.486109917E1,-7.697570920E-1,-5.042646408E0,-3.824790239E0
1.487084896E1,-1.377162576E0,-5.170419693E0,-3.638972521E0
1.488059886E1,-1.668367267E0,-5.152376175E0,-4.286983490E0
1.489034875E1,-1.299603462E0,-5.300609112E0,-4.509618282E0
1.490009865E1,-4.038935602E-1,-5.911320686E0,-3.280275822E0
1.490984854E1,3.894274831E-1,-6.441552162E0,-1.833830953E0
1.491959844E1,1.098247290E0,-6.031659603E0,-1.265454412E0
1.492934833E1,1.573782682E0,-5.183376789E0,-1.426213741E0
1.493909823E1,1.342472076E0,-4.352982521E0,-2.880507231E0
1.494884813E1,8.558147550E-1,-3.069680214E0,-4.461858749E0
1.495859802E1,7.099562883E-2,-1.490652084E0,-5.308327675E0
1.496834792E1,-9.297306538E-1,-8.858604431E-1,-5.630492210E0
1.497809771E1,-1.784063458E0,-1.449270248E-1,-4.964589119E0
1.498784760E1,-2.352632046E0,8.087739944E-1,-4.001847267E0
1.499759750E1,-2.067582369E0,1.244350433E0,-2.877835274E0
1.500734740E1,-1.158360958E0,1.899110794E0,-2.084763527E0
1.501709729E1,-7.207304239E-2,3.155479431E0,-1.472964048E0
1.502684719E1,1.414697886E0,4.050246239E0,-1.408317208E0
1.503659708E1,2.191377401E0,4.249007225E0,-8.404324055E-1
1.504634698E1,2.555445910E0,4.137875557E0,2.897171974E-1
1.505609688E1,1.918678641E0,3.605907440E0,1.805899620E0
1.506584677E1,7.339612246E-1,2.570754051E0,2.655570030E0
1.507559656E1,-9.382945299E-2,1.516694069E0,3.314426184E0
1.508534646E1,-8.380180597E-1,7.852745056E-1,3.804111481E0
1.509509636E1,-1.269128323E0,1.565036774E-1,3.574681520E0
1.510484625E1,-1.206945658E0,-4.079380035E-1,3.023673534E0
1.511459615E1,-7.690127492E-1,-7.635354996E-1,2.100759506E0
1.512434604E1,-2.794071436E-1,-8.648071289E-1,7.383527756E-1
1.513409594E1,2.038135231E-1,-7.437782288E-1,-1.687183380E-1
1.514384583E1,8.509317636E-1,-6.813535690E-1,-6.761896610E-1
1.515359563E1,1.399810910E0,-9.800262451E-1,-1.135468006E0
1.516334552E1,1.296129584E0,-1.448906898E0,-1.271715403E0
1.517309542E1,1.089819789E0,-1.597184181E0,-1.251900792E0
1.518284531E1,8.817722797E-1,-1.727356911E0,-1.071833730E0
1.519259521E1,7.021083236E-1,-1.928222656E0,-1.331296682E0
1.520234511E1,4.496492445E-1,-1.820380688E0,-1.851199627E0
1.521209500E1,2.863136828E-1,-1.516830444E0,-2.043742180E0
1.522184490E1,1.161903590E-1,-1.156176567E0,-2.131556511E0
1.523159469E1,-2.530421317E-2,-7.786521912E-1,-1.891286850E0
1.524134458E1,5.271247029E-2,-6.633119583E-1,-1.614318371E0
1.525109448E1,1.399534643E-1,-5.661878586E-1,-1.376436234E0
1.526084438E1,1.301042140E-1,-1.480875015E-1,-1.052189231E0
1.527059427E1,3.339285553E-1,2.614793777E-1,-6.092560291E-1
1.528034417E1,5.374386907E-1,3.023242950E-1,-3.063157797E-1
1.529009396E1,5.485844612E-1,1.651716232E-1,2.505944967E-1
1.529984386E1,4.634284973E-1,1.467781067E-1,1.048463702E0
1.530959375E1,5.195209384E-1,1.427364349E-1,1.822524548E0
1.531934365E1,2.511635721E-1,1.215114594E-1,1.975855231E0
1.532909354E1,-1.511233449E-1,2.481842041E-1,1.901769519E0
1.533884344E1,-4.261549115E-1,4.372615814E-1,1.782781005E0
1.534859333E1,-5.617163181E-1,5.155143738E-1,1.553048611E0
1.535834313E1,-4.659428596E-1,2.858886719E-1,9.408888817E-1
1.536809302E1,-2.976912856E-1,-2.537832260E-1,2.982079983E-1
1.537784292E1,-6.619361043E-2,-6.116666794E-1,-2.275097370E-2
1.538759281E1,1.043440104E-1,-7.117910385E-1,-7.490122318E-2
1.539734271E1,3.763630092E-1,-5.186443329E-1,2.165317535E-1
1.540709250E1,7.187193632E-1,-3.207578659E-1,1.797369719E-1
1.541684240E1,8.184296489E-1,-4.678087234E-1,-2.679380178E-1
1.542659229E1,7.942430973E-1,-3.423871994E-1,-7.220326662E-1
1.543634219E1,7.301685810E-1,-1.932106018E-1,-9.623332024E-1
1.544609208E1,3.013532162E-1,-2.975978851E-1,-1.307782888E0
1.545584198E1,-1.612048447E-1,-1.660690308E-1,-1.376530886E0
1.546559177E1,-4.023889303E-1,-6.447601318E-2,-1.244217157E0
1.547534167E1,-6.161599755E-1,-1.459741592E-1,-1.162790537E0
1.548509156E1,-8.495478034E-1,-1.601095200E-1,-9.171788692E-1
1.549484146E1,-8.739713430E-1,-1.935691833E-1,-4.519393444E-1
1.550459136E1,-7.941216230E-1,-1.973295212E-1,2.083532810E-1
1.551434115E1,-4.345293939E-1,-9.355163574E-2,7.850693464E-1
1.552409104E1,-6.869977713E-2,1.750946045E-2,1.011184096E0
1.553384094E1,3.099777997E-1,2.174425125E-1,1.051201820E0
1.554359083E1,5.031148791E-1,4.752550125E-1,7.880086899E-1
1.555334073E1,4.531098306E-1,6.508283615E-1,2.888928652E-1
1.556309052E1,1.415491402E-1,5.663995743E-1,-2.282366753E-1
1.557284042E1,-7.152429223E-2,4.663743973E-1,-5.462870598E-1
1.558259031E1,-1.798449755E-1,3.791160583E-1,-6.431987286E-1
1.559234021E1,-2.075780928E-1,2.855072021E-1,-5.678473711E-1
1.560209000E1,-1.817463636E-1,1.707067490E-1,-4.321852922E-1
1.561183990E1,-5.752304196E-2,9.113597870E-2,3.195810318E-2
1.562158979E1,8.053731918E-2,-7.340145111E-2,4.800713062E-1
1.563133969E1,2.956643701E-1,-5.775833130E-2,5.048884153E-1
1.564108958E1,2.805555165E-1,1.432838440E-1,3.202666044E-1
1.565083938E1,3.406602442E-1,4.329805374E-1,-3.638340235E-1
1.566058927E1,3.710595369E-1,6.541624069E-1,-8.481281400E-1
1.567033917E1,1.228362098E-1,5.610094070E-1,-9.351927638E-1
1.568008906E1,-9.987574816E-2,3.999872208E-1,-1.053032756E0
1.568983886E1,2.908940613E-2,3.734922409E-1,-1.004073381E0
1.569958875E1,3.755761981E-1,4.109725952E-1,-6.317481399E-1
1.570933865E1,5.610284805E-1,3.374366760E-1,-4.034315348E-1
1.571908854E1,4.254345298E-1,2.767448425E-1,-4.158169031E-1
1.572883844E1,2.098150849E-1,1.931819916E-1,-3.183041811E-1
1.573858823E1,-1.190599352E-1,8.057975769E-2,-7.564718723E-1
1.574833813E1,-3.352498412E-1,1.422023773E-2,-1.225806117E0
1.575808802E1,-4.078639746E-1,-2.937307358E-1,-1.747708082E0
1.576783792E1,-1.855950654E-1,-7.664031982E-1,-1.939291596E0
1.577758771E1,2.003244907E-1,-1.168295860E0,-1.454432964E0
1.578733761E1,2.777918577E-1,-1.949764252E0,-8.464543223E-1
1.579708750E1,2.459291071E-1,-2.936083794E0,-5.900703073E-1
1.580683740E1,2.752402425E-1,-3.580599785E0,-4.710862637E-1
1.581658719E1,4.599766731E-1,-3.917538166E0,-6.219381094E-1
1.582633708E1,6.664180160E-1,-4.228711605E0,-1.197070479E0
1.583608698E1,7.525398135E-1,-4.231132507E0,-2.029654741E0
1.584583688E1,4.719687104E-1,-4.396359444E0,-2.748891354E0
1.585558667E1,3.610335886E-1,-4.601016045E0,-3.264605999E0
1.586533656E1,2.129066586E-1,-4.493940353E0,-3.282834768E0
1.587508646E1,-1.584427059E-1,-4.544760704E0,-3.079978228E0
1.588483625E1,-5.979733467E-1,-4.728965759E0,-2.215573311E0
1.589458615E1,-1.066193819E0,-4.561021805E0,-1.289062381E0
1.590433604E1,-1.004613876E0,-4.414964676E0,-5.897858143E-1
1.591408594E1,-9.784075618E-1,-4.173758030E0,-7.768189907E-2
1.592383573E1,-9.288341999E-1,-3.733898163E0,6.678628922E-2
1.593358563E1,-5.433732271E-1,-3.313725471E0,-3.567582965E-1
1.594333552E1,-3.906996846E-1,-2.825855255E0,-4.666683674E-1
1.595308531E1,-4.368928075E-1,-2.809514046E0,-3.684332371E-1
1.596283521E1,-1.339169294E-1,-2.758239746E0,-3.449387550E-1
1.597258510E1,1.666890085E-1,-2.898375511E0,1.082137823E-1
1.598233500E1,2.954881489E-1,-3.020908833E0,5.621385574E-1
1.599208479E1,5.665176511E-1,-2.880556107E0,7.239970565E-1
1.600183469E1,5.552673340E-1,-2.593988419E0,5.976017118E-1
1.601158458E1,-1.070405468E-1,-2.305328846E0,-1.495223641E-1
1.602133438E1,9.817284346E-2,-1.595201492E0,-1.030115366E0
1.603108427E1,1.071908712E0,-7.384252548E-1,-8.731549382E-1
1.604083417E1,1.580745459E0,-6.663780212E-1,-4.909332991E-1
1.605058406E1,1.686252594E0,-1.032318115E0,-2.774171233E-1
1.606033386E1,1.144312620E0,-1.871604919E0,1.165559173E0
1.607008375E1,1.575486660E-1,-2.944430828E0,2.761696815E0
1.607983365E1,-2.534291446E-1,-3.217294693E0,3.279734135E0
1.608958344E1,-7.301080227E-1,-2.443488598E0,2.739112616E0
1.609933333E1,-7.832756042E-1,-1.484869957E0,1.070542812E0
1.610908323E1,-2.252645493E-1,-2.935018539E-1,-1.790702105E0
1.611883302E1,3.336590827E-1,9.558200836E-2,-3.674345493E0
1.612858292E1,8.013241291E-1,6.684970856E-2,-4.285183907E0
1.613833281E1,1.174700499E0,1.372003555E-1,-2.934440613E0
1.614808261E1,1.612481117E0,-3.089199066E-1,-1.017297268E0
1.615783250E1,1.191229224E0,-1.669242382E0,2.699751377E0
1.616758240E1,-1.863587618E0,-1.743391037E0,6.411527157E0
1.617733219E1,-6.018907070E0,-4.092706203E0,1.140223598E1
1.618708208E1,-5.918541908E0,-3.353104591E0,8.641795158E0
1.619683198E1,-3.239568472E0,1.344034195E0,3.420888424E0
1.620658177E1,-3.553672731E-1,4.085698128E0,-5.020131469E-1
1.621633167E1,2.059875011E0,5.453561783E0,-4.964723587E0
1.622608156E1,2.876075268E0,4.195638657E0,-6.502788544E0
1.623583136E1,3.180919409E0,2.266150475E0,-5.394224167E0
1.624558125E1,3.344052315E0,1.506796837E0,-4.398720741E0
1.625533115E1,3.000312328E0,1.136099815E0,-2.071577072E0
1.626508094E1,1.415266514E0,2.980613708E-1,2.263473272E-1
1.627483083E1,-1.059273839E0,-1.120787621E0,3.908857822E0
1.628458073E1,-3.257491589E0,-9.784202576E-1,6.912055492E0
1.629433052E1,-3.528487921E0,-1.937427521E-1,6.559926033E0
1.630408042E1,-2.175060272E0,2.567729950E-1,3.431611061E0
1.631383031E1,-1.850339174E-1,7.887916565E-1,2.694954872E-1
1.632358010E1,1.747016311E-1,4.948711395E-1,-3.896489382E0
1.633333000E1,-6.538689137E-2,-1.280117035E-2,-5.397923946E0
1.634307979E1,1.499117017E-1,1.045360565E-1,-4.599522591E0
1.635282969E1,9.310349226E-1,3.890066147E-1,-2.670711279E0
1.636257958E1,7.267997265E-1,-7.332420349E-2,-1.926613450E-1
1.637232938E1,-4.676145315E-2,-8.583478928E-1,1.198646545E0
1.638207927E1,-5.967624187E-1,-1.434838295E0,5.519234538E-1
1.639182906E1,-1.092749357E0,-1.978304863E0,1.535956144E0
1.640157896E1,-1.173073649E0,-1.360888481E0,3.953487396E0
1.641132886E1,-1.395809293E0,-7.578353882E-1,-1.154678106E0
1.642107865E1,-7.858430743E-1,-2.315645218E-1,-2.132764578E0
1.643082854E1,7.215179801E-1,1.003319740E0,-1.081676960E0
1.644057844E1,2.373794079E0,1.309890747E0,-7.625808716E-1
1.645032823E1,2.103846550E0,9.976282120E-1,9.178517461E-1
1.646007813E1,1.156946540E0,2.498645782E-1,1.828777313E0
1.646982792E1,2.960864305E-1,4.188957214E-1,2.209082603E0
1.647957781E1,-7.145456672E-1,3.886690140E-1,2.542864323E0
1.648932771E1,-2.365069389E0,-3.850851059E-1,4.235385895E0
1.649907750E1,-2.370914936E0,-1.638708115E-1,3.752628326E0
1.650882740E1,-9.630837440E-1,6.111774445E-1,1.807920456E0
1.651857719E1,7.708354592E-1,1.183084488E0,-1.069649339E0
1.652832708E1,1.959530592E0,2.223563194E0,-1.925801277E0
1.653807698E1,1.966101408E0,1.743165970E0,-2.568906784E0
1.654782677E1,1.682118416E0,6.243228912E-1,-2.263630390E0
1.655757667E1,1.220518589E0,-4.680929184E-1,-3.895722926E-1
1.656732646E1,1.127842188E0,-7.963151932E-1,1.672296524E0
1.657707636E1,6.756066680E-1,-3.900566101E-1,3.960432768E0
1.658682625E1,-3.934204578E-2,3.014907837E-1,5.228770733E0
1.659657604E1,-2.792569399E-1,1.311079025E0,5.412003040E0
1.660632594E1,2.081825733E-1,3.278114319E0,4.273219585E0
1.661607573E1,1.559436321E0,4.819959641E0,-4.854714498E-2
1.662582563E1,3.428662777E0,5.714497566E0,-4.007322788E0
1.663557542E1,3.828189611E0,5.691663742E0,-4.852722645E0
1.664532531E1,2.280935287E0,4.831025124E0,-4.378266335E0
1.665507521E1,-5.970548391E-1,3.802569389E0,-3.775981188E0
1.666482500E1,-2.418359756E0,2.633355141E0,-3.247864842E-1
1.667457490E1,-2.904229641E0,2.446677208E0,4.316333294E0
1.668432469E1,-2.332831144E0,2.908126831E0,6.155158043E0
1.669407458E1,-1.042628884E0,4.171752930E0,5.328418732E0
1.670382438E1,1.431497574E0,6.183651924E0,2.614761114E0
1.671357427E1,3.525016546E0,7.502192497E0,1.188355923E0
1.672332406E1,2.848707676E0,7.246131897E0,-3.594062924E-1
1.673307396E1,2.056532383E0,6.680576324E0,-1.284826636E0
1.674282375E1,1.149957418E0,6.429719925E0,-1.106110930E0
1.675257365E1,-2.165972590E-1,5.144494057E0,-1.914869785E0
1.676232354E1,-1.254723668E0,4.151093483E0,-1.888954282E0
1.677207333E1,-1.424697280E0,4.393188477E0,-4.509856701E-1
1.678182323E1,-2.013971567E0,5.003434181E0,1.178407431E0
1.679157302E1,-2.128544331E0,5.805369377E0,1.589385152E0
1.680132292E1,-6.511416435E-1,6.772746086E0,1.226459503E0
1.681107271E1,1.083041787E0,6.913905144E0,-4.693918228E-1
1.682082260E1,1.583254099E0,6.680350304E0,-1.335119963E0
1.683057240E1,1.606234550E0,5.996427536E0,-3.128423214E0
1.684032229E1,1.618991256E0,5.128375053E0,-4.900594711E0
1.685007208E1,1.367024422E0,4.634064674E0,-4.397875786E0
1.685982198E1,7.801384926E-1,4.536837578E0,-3.878716707E0
1.686957177E1,-1.252214015E-1,4.167715073E0,-3.739410162E0
1.687932167E1,-4.119010568E-1,4.039444923E0,-2.324263096E0
1.688907146E1,-1.216884017E0,4.477829933E0,-5.886623859E-1
1.689882136E1,-6.674176455E-1,4.902625084E0,8.019808531E-1
1.690857115E1,-2.825952172E-1,5.504951477E0,-3.560016155E-1
1.691832104E1,3.509433866E-1,5.147730827E0,-2.467469454E0
1.692807083E1,1.422474504E0,4.440556526E0,-3.372267962E0
1.693782073E1,1.468427062E0,3.583157539E0,-3.585364580E0
1.694757052E1,1.975136042E0,2.569811821E0,-5.527764797E0
1.695732042E1,8.475022316E-1,1.666602135E0,-4.177238464E0
1.696707021E1,5.760708451E-2,4.777717590E-1,-2.083288193E0
1.697682010E1,-8.603039980E-1,1.586103439E-1,3.380740881E-1
1.698656990E1,-1.284102321E0,-5.765438080E-2,2.449507713E0
1.699631979E1,-1.230905890E0,-2.055644989E-2,3.195892572E0
1.700606958E1,-4.889386892E-2,3.490819931E-1,2.306864262E0
1.701581948E1,6.460363865E-1,9.088916779E-1,1.900665522E0
1.702556927E1,9.150092006E-1,1.292547226E0,8.282099962E-1
1.703531917E1,1.047028065E0,1.065658569E0,-6.163605452E-1
1.704506896E1,5.789450407E-1,6.598663330E-1,-2.469433308E0
1.705481886E1,-2.434745431E-1,2.701120377E-1,-2.776899815E0
1.706456865E1,-7.975860834E-1,-2.257165909E-1,-1.878024340E0
1.707431854E1,-1.039776087E0,-1.096458435E0,-1.159137368E0
1.708406833E1,-8.522644639E-1,-1.824869156E0,1.682654619E-1
1.709381813E1,-7.413637638E-1,-2.153919220E0,2.338168383E0
1.710356802E1,-9.574840069E-1,-1.737059593E0,4.161627769E0
1.711331781E1,-4.274899364E-1,-1.154664993E0,5.109197140E0
1.712306771E1,4.267002344E-1,-5.607671738E-1,5.039660454E0
1.713281750E1,1.214934349E0,1.401309967E-1,3.593076944E0
1.714256740E1,1.805964708E0,4.994773865E-1,1.485755920E0
1.715231719E1,1.562635183E0,3.294153214E-1,3.298664093E-2
1.716206708E1,1.220900536E0,-6.362533569E-2,-9.875209332E-1
1.717181688E1,6.945222020E-1,-3.269023895E-1,-1.146489143E0
1.718156677E1,3.636251688E-1,-1.267404556E-1,-5.651414394E-2
1.719131656E1,1.692248583E-1,-1.324558258E-1,7.783620358E-1
1.720106636E1,6.187893152E-1,-3.813791275E-1,1.548025250E0
1.721081625E1,5.504399538E-1,-2.247066498E-1,2.786566019E0
1.722056604E1,2.588585615E-1,-3.466606140E-3,2.932532310E0
1.723031594E1,3.275737166E-1,2.064781189E-1,2.498774052E0
1.724006573E1,5.088063478E-1,1.203765869E-1,1.828868508E0
1.724981563E1,5.691213012E-1,-1.416234970E-1,1.197130919E0
1.725956542E1,3.454920650E-1,-1.543674469E-1,1.212154508E0
1.726931521E1,7.503926754E-2,2.642660141E-1,1.083346844E0
1.727906510E1,3.605149984E-1,8.353681564E-1,1.843056381E-1
1.728881490E1,1.119753122E0,1.262859344E0,2.988885343E-1
1.729856479E1,1.130071163E0,1.576959610E0,6.890590787E-1
1.730831458E1,8.221201897E-1,1.488087654E0,1.131270170E0
1.731806448E1,1.534098387E-1,3.797607422E-1,1.613075495E0
1.732781427E1,-2.603767812E-1,-1.490488052E-1,3.040108204E0
1.733756406E1,-5.614769459E-1,3.460750580E-1,3.216455221E0
1.734731396E1,-6.205813885E-1,1.084113121E0,1.934381962E0
1.735706375E1,1.114000678E-1,1.381411552E0,1.200210810E0
1.736681365E1,9.677994251E-1,1.472571373E0,4.064419866E-1
1.737656344E1,1.155746698E0,1.326807976E0,1.418587208E0
1.738631323E1,1.413410544E0,9.778404236E-1,2.585344791E0
1.739606313E1,1.306981802E0,8.770618439E-1,2.070500612E0
1.740581292E1,8.953605294E-1,4.108266830E-1,9.678466916E-1
1.741556281E1,6.101540327E-1,1.180200577E-1,-1.754169911E-1
1.742531261E1,7.310622931E-2,3.759889603E-1,-1.019507289E0
1.743506240E1,-4.786634743E-1,5.630817413E-1,-1.565987349E0
1.744481229E1,-7.130773664E-1,6.390771866E-1,-1.524452209E0
1.745456208E1,-6.802769899E-1,1.864604950E-1,-4.219222069E-1
1.746431188E1,1.753528118E-1,1.830963135E0,-1.626386762E0
1.747406177E1,-2.543866634E-2,2.333208084E0,-1.642999768E0
1.748381156E1,-2.840104699E-1,1.684703827E0,-6.444095373E-1
1.749356146E1,-2.591917217E-1,7.644290924E-1,8.339265585E-1
1.750331125E1,-2.593450546E-1,-2.083549500E-1,1.406002045E0
1.751306104E1,-6.899613142E-1,-4.933538437E-1,2.047936916E0
1.752281094E1,-7.758935094E-1,2.831954956E-1,1.681570530E0
1.753256073E1,-6.597886682E-1,1.103958130E0,7.120887041E-1
1.754231052E1,-3.185364604E-1,1.738388062E0,-2.869782448E-1
1.755206042E1,-3.381572366E-1,2.214434624E0,-7.805240154E-1
1.756181021E1,-2.067780793E-1,2.323768616E0,-1.254600763E0
1.757156000E1,-6.380403638E-1,1.949024200E0,-1.121797323E0
1.758130990E1,-1.255565524E0,1.416650772E0,-8.169401288E-1
1.759105969E1,-1.702975512E0,9.258890152E-1,-2.289388180E-1
1.760080958E1,-1.515229821E0,2.218046188E-1,1.153784990E-1
1.761055938E1,-1.334433079E0,-9.258565903E-1,8.336186409E-2
1.762030917E1,-1.004066467E0,-2.014925003E0,4.699859023E-1
1.763005906E1,-7.892751694E-1,-2.775357246E0,1.946222425E0
1.763980886E1,-2.933426499E-1,-3.205462456E0,2.968199015E0
1.764955865E1,-5.008531809E-1,-4.261119843E0,1.904263496E0
1.765930854E1,-7.819114923E-1,-4.081264496E0,1.029221058E0
1.766905833E1,-9.431793541E-2,-2.720326424E0,5.495250225E-1
1.767880813E1,2.670760155E-1,-2.429006577E0,-1.605314016E-2
1.768855802E1,1.825941354E-2,-2.904078484E0,-5.450884104E-1
1.769830781E1,-3.253852129E-1,-3.295224190E0,-1.419583082E0
1.770805760E1,-5.428867340E-1,-3.582740784E0,-1.958686113E0
1.771780750E1,-8.871914744E-1,-3.864016533E0,-1.938013196E0
1.772755729E1,-6.798668504E-1,-4.100172997E0,-2.259871960E0
1.773730708E1,-3.494893312E-1,-4.503127098E0,-2.759852886E0
1.774705688E1,1.390613616E-1,-4.754543304E0,-2.402771473E0
1.775680677E1,6.082072258E-1,-5.125022888E0,-1.389159441E0
1.776655656E1,8.776714802E-1,-5.566071510E0,-6.098406315E-1
1.777630636E1,7.334251404E-1,-6.390865326E0,-3.325586319E-1
1.778605625E1,6.206231117E-1,-7.234109879E0,-3.357214928E-1
1.779580604E1,1.707980335E-1,-7.654032230E0,-3.625023365E-1
1.780555583E1,-5.742831826E-1,-7.454092979E0,-1.708385944E-1
1.781530573E1,-6.765605211E-1,-7.023449421E0,-2.207870483E-1
1.782505552E1,-6.525536776E-1,-6.299631596E0,-7.078266144E-1
1.783480531E1,-7.159124613E-1,-5.429075718E0,-1.845128179E0
1.784455510E1,-4.289784431E-1,-4.739710331E0,-3.156208515E0
1.785430500E1,-2.592215240E-1,-4.810968876E0,-4.055582047E0
1.786405479E1,1.944849640E-1,-4.413691998E0,-3.794815540E0
1.787380458E1,1.115096211E0,-3.427355766E0,-2.718475580E0
1.788355448E1,1.618036389E0,-2.564349174E0,-8.280113935E-1
1.789330427E1,1.102008581E0,-1.851661682E0,1.114801168E0
1.790305406E1,-1.870128512E-1,-1.190788269E0,2.485630989E0
1.791280386E1,-5.013456941E-1,-7.429552078E-1,1.906305552E0
1.792255375E1,-1.430761814E-1,2.304592133E-1,-2.078282833E-1
1.793230354E1,3.465912938E-1,1.810729980E0,-2.542152166E0
1.794205333E1,4.633688331E-1,2.952930450E0,-4.695590019E0
1.795180313E1,4.057892263E-1,3.663882256E0,-6.324014664E0
1.796155302E1,7.243595123E-1,4.111427307E0,-6.205941200E0
1.797130281E1,1.316587806E0,4.081356049E0,-4.451547623E0
1.798105261E1,1.424609184E0,3.761476517E0,-2.054052353E0
1.799080240E1,1.164326668E0,3.185150146E0,7.415857315E-1
1.800055229E1,7.118676305E-1,1.963946342E0,2.300490141E0
1.801030208E1,5.850532651E-1,1.057716370E0,3.199378967E0
1.802005188E1,4.616153240E-1,5.341110229E-1,3.823231220E0
1.802980167E1,4.818157554E-1,1.253900528E-1,3.682931423E0
1.803955156E1,4.661025107E-2,-5.979185104E-1,2.666764736E0
1.804930136E1,-3.865780234E-1,-1.520535469E0,1.113528132E0
1.805905115E1,-4.829502702E-1,-2.069053173E0,-1.045890570E0
1.806880094E1,-4.936388135E-2,-1.365641594E0,-2.527520657E0
1.807855073E1,4.849659204E-1,-6.863927841E-1,-2.692314148E0
1.808830063E1,7.459573746E-1,-6.078310013E-1,-2.472274542E0
1.809805042E1,5.865723491E-1,-1.208155632E0,-2.665477037E0
1.810780021E1,2.082380056E-1,-1.698055267E0,-3.063057423E0
1.811755010E1,-8.766847849E-2,-1.702186584E0,-3.480368614E0
1.812729990E1,-8.355730772E-2,-1.161092758E0,-3.438843727E0
1.813704969E1,1.145677865E-1,-8.113422394E-1,-3.011120319E0
1.814679948E1,-1.106138229E-1,-8.571357727E-1,-2.380992889E0
1.815654927E1,-5.667590499E-1,-1.027723312E0,-1.263764501E0
1.816629917E1,-8.510223627E-1,-9.800004959E-1,-8.114739656E-1
1.817604896E1,-8.832890987E-1,-5.256919861E-1,-7.799397707E-1
1.818579875E1,-6.467883587E-1,-1.038551331E-2,-9.038709402E-1
1.819554854E1,-3.150728345E-1,4.643802643E-1,-7.698030472E-1
1.820529833E1,-2.152876854E-1,5.117139816E-1,-3.190619946E-1
1.821504823E1,-1.455386281E-1,3.201055527E-1,-2.961415052E-1
1.822479802E1,6.423950195E-2,1.137933731E-1,-2.234237194E-1
1.823454781E1,2.215019464E-1,-2.429275513E-1,-5.694317818E-2
1.824429760E1,4.286214113E-1,-3.630933762E-1,-2.940511703E-1
1.825404740E1,7.613877058E-1,1.987886429E-1,-7.295634747E-1
1.826379729E1,6.660229564E-1,2.642507553E-1,-7.680580616E-1
1.827354708E1,4.090126455E-1,-1.091718674E-1,-2.911429405E-1
1.828329688E1,9.073573351E-2,-2.661705017E-1,1.720799446E0
1.829304667E1,-9.615695477E-2,-2.431192398E-1,3.361619949E0
1.830279646E1,-3.401255012E-1,-1.301670074E-1,3.751360893E0
1.831254636E1,-3.563013673E-1,1.074924469E-1,2.328692675E0
1.832229615E1,-4.351023436E-1,5.162401199E-1,8.383882046E-1
1.833204594E1,-1.463787556E-1,7.822504044E-1,-2.393527031E-1
1.834179573E1,2.306242883E-1,7.076997757E-1,-8.139183521E-1
1.835154552E1,2.915213704E-1,6.486234665E-1,-4.338123798E-1
1.836129531E1,2.383999825E-1,5.062894821E-1,2.353236675E-1
1.837104521E1,2.813667059E-2,-4.263114929E-2,1.223883867E0
1.838079500E1,-5.311457515E-1,-5.455789566E-1,1.645576715E0
1.839054479E1,-7.868295908E-1,-7.021741867E-1,1.791683435E0
1.840029458E1,-4.419623017E-1,-6.072196960E-1,1.682676792E0
1.841004438E1,-1.190625429E-1,-3.115062714E-1,1.132584095E0
1.841979417E1,-1.077628732E-1,-1.328153610E-1,5.464565754E-1
1.842954406E1,6.749644876E-2,-2.616786957E-2,1.595306396E-2
1.843929386E1,2.186975777E-1,7.333564758E-2,-3.267014027E-1
1.844904365E1,2.311962843E-1,1.986064911E-1,-3.681436777E-1
1.845879344E1,1.856039166E-1,1.910095215E-1,-2.032642365E-1
1.846854323E1,-3.940492868E-3,1.028041840E-1,-1.100935936E-1
1.847829302E1,-2.211386561E-1,6.788539886E-2,-3.346420527E-1
1.848804281E1,-2.498942912E-1,2.584552765E-2,-2.433061600E-1
1.849779271E1,-1.584660411E-1,1.644773483E-1,4.488754272E-2
1.850754250E1,-7.844606042E-2,2.515668869E-1,1.366832256E-1
1.851729229E1,-2.528253198E-2,2.306327820E-1,1.613464355E-1
1.852704208E1,3.497511148E-2,1.841421127E-1,-3.326439857E-2
1.853679188E1,1.233764589E-1,2.126493454E-1,-1.828618050E-1
1.854654167E1,7.052823901E-2,1.940793991E-1,-2.586915493E-1
1.855629146E1,-6.934425235E-2,1.123161316E-1,-4.923558235E-1
1.856604125E1,-9.488493204E-2,1.278924942E-1,-5.345239639E-1
1.857579104E1,-1.043840945E-1,8.499431610E-2,-4.363889694E-1
1.858554094E1,-7.791414857E-2,2.804660797E-2,-2.364879847E-1
1.859529073E1,-1.703491807E-2,5.648994446E-2,-3.155279160E-2
1.860504052E1,-1.171454787E-2,-1.159477234E-2,1.081981659E-1
1.861479031E1,-7.199865580E-2,-1.641921997E-1,2.503764629E-1
1.862454010E1,-1.897580028E-1,-2.196378708E-1,1.678576469E-1
1.863428990E1,-1.586633027E-1,-8.424472809E-2,-3.253245354E-2
1.864403969E1,-3.306418657E-3,2.533340454E-2,-2.282721996E-1
1.865378948E1,5.832202733E-2,-2.415370941E-2,-2.491898537E-1
1.866353927E1,1.407189667E-2,-2.188653946E-1,-9.219908714E-2
1.867328917E1,-1.021082699E-1,-2.892494202E-1,1.996636391E-2
1.868303896E1,-5.437400937E-2,-2.256479263E-1,-2.162933350E-2
1.869278875E1,1.286522746E-1,-1.241369247E-1,1.309847832E-1
1.870253854E1,2.113258392E-1,-9.470462799E-2,2.511334419E-1
1.871228833E1,1.694720834E-1,-1.633977890E-1,1.620874405E-1
1.872203813E1,2.129278034E-1,-1.107530594E-1,3.078441620E-1
1.873178792E1,1.861684471E-1,-8.507347107E-2,4.206175804E-1
1.874153771E1,1.553552151E-1,-1.096057892E-1,1.685302258E-1
1.875128750E1,1.468785405E-1,-9.057521820E-2,-1.421382427E-1
1.876103729E1,9.386944771E-2,-6.323337555E-2,-3.257761002E-1
1.877078708E1,6.074416637E-2,-5.625629425E-2,-2.537561655E-1
1.878053688E1,7.232487202E-3,-7.969951630E-2,-1.606514454E-1
1.879028667E1,-6.928673387E-2,-6.461715698E-2,-1.264271736E-1
1.880003646E1,-1.911061406E-1,-2.069263458E-1,-1.463196278E-1
1.880978636E1,-3.020824790E-1,-3.203306198E-1,-1.094303131E-1
1.881953615E1,-3.574217558E-1,-2.598075867E-1,8.175992966E-2
1.882928594E1,-3.422585130E-1,-2.193346024E-1,1.630163193E-1
1.883903573E1,-1.796540320E-1,-1.698188782E-1,1.595602036E-1
1.884878552E1,-4.684418440E-2,-1.249980927E-1,-8.123135567E-2
1.885853531E1,5.604714155E-2,-1.227188110E-1,-2.830885649E-1
1.886828511E1,2.239268720E-1,-4.072189331E-4,-3.107070923E-1
1.887803490E1,2.978561223E-1,8.534812927E-2,-3.312766552E-1
1.888778469E1,3.014534414E-1,1.042718887E-1,-3.104002476E-1
1.889753448E1,2.316245586E-1,8.525371552E-2,-1.551175117E-1
1.890728427E1,7.270380855E-2,4.517269135E-2,-5.055081844E-2
1.891703406E1,-8.675992489E-3,7.364749908E-2,3.042197227E-2
1.892678386E1,-8.412620425E-2,6.348896027E-2,8.386826515E-2
1.893653365E1,-1.093801260E-1,7.447528839E-2,1.690292358E-2
1.894628344E1,-6.927493215E-2,5.222511292E-2,-4.196238518E-2
1.895603323E1,-3.568267822E-2,-1.007270813E-2,5.676460266E-2
1.896578302E1,3.368169069E-3,-9.333992004E-2,1.476923227E-1
1.897553281E1,1.273337603E-1,-3.731918335E-2,1.682795286E-1
1.898528261E1,2.666023076E-1,-4.631614685E-2,1.278580427E-1
1.899503240E1,2.526359558E-1,-4.792594910E-2,-1.875890493E-1
1.900478219E1,2.921553552E-1,5.730724335E-2,-4.896976948E-1
1.901453198E1,3.624348938E-1,2.443218231E-1,-5.796144009E-1
1.902428177E1,3.421767652E-1,2.359714508E-1,-5.504288673E-1
1.903403156E1,1.568612754E-1,1.427755356E-1,-2.775938511E-1
1.904378136E1,1.061088443E-1,1.533727646E-1,1.125943661E-2
1.905353115E1,2.905571461E-2,2.353725433E-1,4.078662395E-2
1.906328094E1,2.615597844E-2,2.870893478E-1,-8.941435814E-2
1.907303073E1,-2.309408188E-1,4.108343124E-1,-3.004158735E-1
1.908278052E1,-3.308447897E-1,6.031427383E-1,-5.136877298E-1
1.909253031E1,-5.308501720E-1,7.542610168E-1,-4.426813126E-1
1.910228011E1,-6.197652817E-1,8.388986588E-1,-5.622034073E-1
1.911202990E1,-5.916066766E-1,8.371696472E-1,-7.968090773E-1
1.912177969E1,-4.512776136E-1,9.435014725E-1,-8.854353428E-1
1.913152948E1,-2.025242448E-1,1.064415932E0,-9.689708352E-1
1.914127927E1,2.517673373E-2,1.100921631E0,-9.390993714E-1
1.915102906E1,2.107942402E-1,1.124687195E0,-8.909395337E-1
1.916077886E1,3.330084085E-1,1.098269463E0,-7.244156599E-1
1.917052865E1,3.475425839E-1,8.592109680E-1,-5.697491169E-1
1.918027844E1,3.097337484E-1,5.961732864E-1,-4.245761633E-1
1.919002823E1,2.779702246E-1,3.876276016E-1,-1.767792702E-1
1.919977802E1,2.198576778E-1,2.192773819E-1,-1.854027510E-1
1.920952781E1,9.140756726E-2,7.491111755E-2,-4.297314882E-1
1.921927761E1,1.200304329E-1,1.654224396E-1,-8.000996709E-1
1.922902740E1,2.971814275E-1,2.331924438E-1,-1.100578308E0
1.923877719E1,3.115573525E-1,1.617593765E-1,-1.425812602E0
1.924852698E1,2.897008061E-1,-1.513671875E-1,-1.605706692E0
1.925827677E1,2.980940044E-1,-4.220762253E-1,-1.505772591E0
1.926802656E1,3.566444218E-1,-6.557006836E-1,-1.300357342E0
1.927777636E1,2.713547051E-1,-1.105605125E0,-1.239101291E0
1.928752615E1,2.762363255E-1,-1.473021507E0,-1.232429147E0
1.929727594E1,3.861351609E-1,-1.674902916E0,-9.052546024E-1
1.930702563E1,2.865175605E-1,-1.900522232E0,-6.621653438E-1
1.931677542E1,1.671049446E-1,-2.163672924E0,-8.869603872E-1
1.932652521E1,1.068380773E-1,-2.265540123E0,-1.220854878E0
1.933627500E1,2.330924422E-1,-2.256438255E0,-1.236993432E0
1.934602479E1,2.655167282E-1,-2.468305588E0,-1.311090946E0
1.935577458E1,3.162071407E-1,-2.671417236E0,-1.528236866E0
1.936552438E1,4.884606004E-1,-3.012001991E0,-1.431456089E0
1.937527417E1,3.253594041E-1,-3.438479424E0,-8.071076870E-1
1.938502396E1,2.589216828E-2,-4.095024109E0,-9.140276909E-2
1.939477375E1,-7.482794523E-1,-5.029865742E0,3.833738565E-1
1.940452354E1,-1.274725437E0,-5.770564556E0,9.364978075E-1
1.941427333E1,-1.493509412E0,-6.176275253E0,1.536606550E0
1.942402313E1,-1.335887551E0,-6.288376808E0,1.068040371E0
1.943377292E1,-7.781968117E-1,-6.004544258E0,-1.484800577E-1
1.944352261E1,-1.983083412E-2,-5.667991161E0,-1.370557785E0
1.945327240E1,6.748113036E-1,-5.420220375E0,-2.344408274E0
1.946302219E1,6.797947288E-1,-5.259868622E0,-2.654618740E0
1.947277198E1,4.492915571E-1,-5.084327221E0,-2.567985773E0
1.948252177E1,7.286649942E-2,-4.664630890E0,-2.013518333E0
1.949227156E1,-3.242782950E-1,-4.135136604E0,-1.284262657E0
1.950202136E1,-4.647663832E-1,-3.904182911E0,-9.623202682E-1
1.951177115E1,-5.637693405E-1,-3.593888283E0,-7.775503397E-1
1.952152094E1,-2.982110977E-1,-2.748977661E0,-6.573106647E-1
1.953127073E1,5.884256363E-1,-1.383022308E0,-6.078153849E-1
1.954102052E1,7.200942039E-1,-8.375806808E-1,-7.883147597E-1
1.955077021E1,6.226588488E-1,-8.556375504E-1,-9.632512331E-1
1.956052000E1,5.606017113E-1,-8.122491837E-1,-9.625889063E-1
1.957026979E1,5.303974748E-1,-6.232242584E-1,-3.143634796E-1
1.958001958E1,2.883803844E-1,-6.950216293E-1,5.739080906E-1
1.958976938E1,-4.571255744E-1,-9.198837280E-1,1.673443556E0
1.959951917E1,-1.410336971E0,-1.044138908E0,2.753210545E0
1.960926896E1,-1.925897598E0,-1.004660606E0,3.154545546E0
1.961901875E1,-1.654259205E0,-6.822538376E-1,2.942995787E0
1.962876854E1,-9.014902115E-1,-2.790708542E-1,2.110153198E0
1.963851823E1,-3.398532271E-1,1.251716614E-1,1.216838598E0
1.964826802E1,6.454679966E-1,3.186788559E-1,7.774504423E-1
1.965801781E1,1.043884039E0,-3.407859802E-2,6.146668196E-1
1.966776760E1,8.974688053E-1,-6.343765259E-1,5.223945379E-1
1.967751740E1,-7.518190145E-2,-1.398174286E0,6.130269766E-1
1.968726719E1,-8.163033724E-1,-1.705430031E0,1.092967033E0
1.969701698E1,-1.365845203E0,-1.369625092E0,1.466363907E0
1.970676667E1,-1.476688504E0,-7.425785065E-1,1.827414989E0
1.971651646E1,-9.853222370E-1,-2.892913818E-1,1.533283591E0
1.972626625E1,-6.191440821E-1,-1.646080017E-1,1.193426251E0
1.973601604E1,-7.478767633E-2,-4.794502258E-1,7.676844597E-1
1.974576583E1,4.768394828E-1,-6.717443466E-1,6.075251102E-2
1.975551563E1,4.265629053E-1,-8.560867310E-1,-4.954372644E-1
1.976526542E1,6.190490723E-2,-1.315833092E0,-9.804035425E-1
1.977501510E1,-2.687349319E-1,-1.573194027E0,-1.155939460E0
1.978476490E1,-5.515339375E-1,-1.550833702E0,-7.262156606E-1
1.979451469E1,-6.578370333E-1,-1.164047241E0,-7.209885120E-2
