"Time (s)","Gyroscope x (rad/s)","Gyroscope y (rad/s)","Gyroscope z (rad/s)"
1.583990000E-2,-5.394073725E-1,1.531272475E-2,2.117150649E-2
2.584115000E-2,-6.192998290E-1,4.940018058E-2,-9.720250964E-3
3.584427500E-2,-6.491263509E-1,6.005251035E-2,-3.635107726E-2
4.585151400E-2,-6.374087930E-1,6.857437640E-2,-4.806863889E-2
5.586203500E-2,-5.894733071E-1,7.816147059E-2,-4.487293959E-2
6.587703500E-2,-5.127765536E-1,5.472634733E-2,-2.463351376E-2
7.589531600E-2,-4.264926612E-1,2.489982173E-2,1.264964230E-2
8.591776400E-2,-3.497959077E-1,1.744319126E-2,5.951989442E-2
9.594292000E-2,-2.858819067E-1,2.489982173E-2,9.573781490E-2
1.059714100E-1,-2.592510879E-1,4.300878197E-2,1.255643368E-1
1.160015140E-1,-2.699034214E-1,3.768261895E-2,1.479342431E-1
1.260337540E-1,-3.039908707E-1,2.170412242E-2,1.585865617E-1
1.360570870E-1,-3.529915810E-1,9.986559860E-3,1.607170254E-1
1.460819310E-1,-4.158403277E-1,9.986559860E-3,1.511299312E-1
1.561068270E-1,-4.637758136E-1,-6.657706108E-4,1.340862066E-1
1.661325040E-1,-4.616453648E-1,-1.557903271E-2,1.234338731E-1
1.761413580E-1,-4.073184729E-1,-2.090519853E-2,1.191729456E-1
1.861515660E-1,-3.252955377E-1,-1.983996481E-2,1.159772426E-1
1.961622430E-1,-2.517944574E-1,-8.122402243E-3,1.191729456E-1
2.061729200E-1,-2.070546746E-1,8.921326138E-3,1.223686412E-1
2.161838580E-1,-1.857500076E-1,1.850842312E-2,1.202381775E-1
2.261970870E-1,-1.687062830E-1,1.105179265E-2,1.117163152E-1
2.362108370E-1,-1.516625583E-1,-8.122402243E-3,1.063901484E-1
2.462269830E-1,-1.346188188E-1,-1.238333434E-2,1.053249165E-1
2.562443790E-1,-1.069227681E-1,-2.729659714E-2,1.085206121E-1
2.662640140E-1,-8.135717362E-2,-6.671021879E-2,1.106510833E-1
2.762846390E-1,-7.177007198E-2,-1.018629074E-1,1.127815470E-1
2.863071390E-1,-8.029194176E-2,-1.061238423E-1,1.053249165E-1
2.963301080E-1,-1.005313694E-1,-1.029281393E-1,8.188978583E-2
3.063543790E-1,-1.335535944E-1,-7.097115368E-2,4.993279651E-2
3.163752640E-1,-1.665758193E-1,-1.983996481E-2,1.371487509E-2
3.263970350E-1,-1.719019860E-1,3.342168778E-2,-2.569874749E-2
3.364089100E-1,-1.452711523E-1,7.709623873E-2,-5.872096866E-2
3.464220350E-1,-1.047922969E-1,8.881380409E-2,-7.576470077E-2
3.564354200E-1,-5.685681105E-2,7.177007198E-2,-7.576470077E-2
3.664502640E-1,-1.105179265E-2,2.809552103E-2,-7.043853402E-2
3.764580250E-1,1.344856713E-2,-2.729659714E-2,-6.191666797E-2
3.864679200E-1,5.991935730E-3,-6.884068251E-2,-4.593817517E-2
3.964790660E-1,-2.489982173E-2,-5.925358832E-2,-2.995967865E-2
4.064926600E-1,-6.324820966E-2,-3.049229458E-2,-2.676397935E-2
4.165076600E-1,-9.733566642E-2,2.063889056E-2,-2.782921307E-2
4.265251600E-1,-1.037270650E-1,5.579157919E-2,-2.889444493E-2
4.365439620E-1,-6.750914454E-2,6.644391268E-2,-2.782921307E-2
4.465650040E-1,-1.424749196E-2,6.857437640E-2,-1.717688330E-2
4.565862540E-1,4.007939249E-2,5.366111174E-2,-3.328853287E-3
4.666092750E-1,7.842778414E-2,3.768261895E-2,5.193010904E-3
4.766327120E-1,8.908011019E-2,4.620448127E-2,1.051917579E-2
4.866573470E-1,8.055824786E-2,6.005251035E-2,4.127778113E-3
4.966762020E-1,7.842778414E-2,7.496577501E-2,-1.824211515E-2
5.066960450E-1,9.014534205E-2,1.079879999E-1,-4.167724028E-2
5.167096390E-1,1.252980381E-1,1.037270650E-1,-5.765573680E-2
5.267243790E-1,1.657768935E-1,3.342168778E-2,-6.404713541E-2
5.367392750E-1,1.913424879E-1,-3.049229458E-2,-6.298190355E-2
5.467449520E-1,2.041252851E-1,-9.440627694E-2,-5.232957378E-2
5.567516180E-1,1.881467849E-1,-8.162347972E-2,-4.274247587E-2
5.667607850E-1,1.551245600E-1,-3.581846133E-2,-4.593817517E-2
5.767715140E-1,1.370155960E-1,7.856093347E-3,-5.659050494E-2
5.867850560E-1,1.380808353E-1,6.537867337E-2,-6.191666797E-2
5.968003680E-1,1.540593207E-1,1.431406885E-1,-6.937330216E-2
6.068184930E-1,1.924077123E-1,1.985328048E-1,-8.535179496E-2
6.168381810E-1,2.318213433E-1,1.921414137E-1,-1.055912226E-1
6.268603680E-1,2.477998286E-1,7.070484012E-2,-1.237001866E-1
6.368836500E-1,2.350170314E-1,-1.561897993E-1,-1.354177445E-1
6.469069830E-1,1.796249151E-1,-4.022586346E-1,-1.354177445E-1
6.569258370E-1,9.653674066E-2,-5.183690190E-1,-1.386134475E-1
6.669463580E-1,4.007939249E-2,-5.002600551E-1,-1.545919478E-1
6.769672430E-1,3.901416063E-2,-3.926715255E-1,-1.844184697E-1
6.869893790E-1,8.801487833E-2,-2.243647128E-1,-2.121145278E-1
6.969926600E-1,1.711030602E-1,-1.983996481E-2,-2.323539555E-1
7.069964620E-1,3.010614812E-1,1.303578913E-1,-2.419410497E-1
7.170012540E-1,4.768249393E-1,1.601844132E-1,-2.366148829E-1
7.270092750E-1,6.344794035E-1,2.059894353E-1,-2.057231218E-1
7.370196910E-1,7.282199264E-1,2.869471312E-1,-1.524614692E-1
7.470326080E-1,7.697640061E-1,2.848166823E-1,-8.002562821E-2
7.570480770E-1,7.655031085E-1,1.772281379E-1,-1.198387123E-3
7.670671390E-1,7.037195563E-1,2.063889056E-2,2.117150649E-2
7.770877640E-1,5.141080618E-1,3.555215150E-2,1.478010789E-2
7.871115140E-1,2.840177417E-1,1.143793985E-1,4.673709720E-2
7.971362020E-1,7.949301600E-2,1.559234858E-1,7.549838722E-2
8.071633370E-1,-2.809552103E-2,1.133141592E-1,1.053249165E-1
8.171912540E-1,-2.596505545E-2,6.324820966E-2,1.319557428E-1
8.272205250E-1,1.252980381E-1,-3.688369319E-2,1.468690038E-1
8.372442750E-1,3.873453438E-1,-1.125152409E-1,1.479342431E-1
8.472607330E-1,6.461969614E-1,-1.370155960E-1,1.138467789E-1
8.572599520E-1,8.230256438E-1,-1.071890742E-1,6.697652489E-2
8.672616700E-1,9.082443118E-1,-3.581846133E-2,4.780233279E-2
8.772652640E-1,9.615059495E-1,5.579157919E-2,5.632419512E-2
8.872722430E-1,1.035007000E0,9.307473898E-2,9.680305421E-2
8.972810970E-1,1.111703873E0,9.627043456E-2,1.532603949E-1
9.072938580E-1,1.134073734E0,1.037270650E-1,2.086525112E-1
9.173094310E-1,1.074420691E0,1.399449855E-1,2.331528813E-1
9.273288580E-1,9.114400148E-1,2.656424940E-1,2.193048447E-1
9.373500560E-1,6.547188759E-1,4.158403277E-1,1.447385401E-1
9.473745870E-1,3.713668585E-1,5.042546988E-1,4.673709720E-2
9.574002120E-1,1.135804728E-1,6.235607862E-1,2.117150649E-2
9.674283370E-1,-9.413997084E-2,6.576482654E-1,1.584534161E-2
9.774566180E-1,-2.038589716E-1,5.777557492E-1,-2.037258074E-2
9.874864100E-1,-2.102503628E-1,4.222317338E-1,-5.552527308E-2
9.975115660E-1,-1.569887102E-1,2.432725877E-1,-5.232957378E-2
1.007537452E0,-1.154446304E-1,1.218360290E-1,-1.398118306E-2
1.017545004E0,-1.442059278E-1,7.177007198E-2,3.501953557E-2
1.027552920E0,-2.219679356E-1,5.046541616E-2,8.402025700E-2
1.037560733E0,-3.657743931E-1,1.527277827E-1,1.543256342E-1
1.047570681E0,-5.255593657E-1,2.283593267E-1,2.331528813E-1
1.057581150E0,-5.841471553E-1,3.348826170E-1,2.438052148E-1
1.067594118E0,-5.234288573E-1,2.858819067E-1,2.470009029E-1
1.077607868E0,-4.019923210E-1,2.006632686E-1,2.725664973E-1
1.087624275E0,-2.422073632E-1,1.058575287E-1,2.672403455E-1
1.097641462E0,-6.857437640E-2,3.768261895E-2,1.809564531E-1
1.107661202E0,4.114462435E-2,2.809552103E-2,5.312849581E-2
1.117682139E0,-1.424749196E-2,6.963960826E-2,-6.191666797E-2
1.127705160E0,-3.061213493E-1,9.733566642E-2,-1.727008969E-1
1.137727816E0,-8.910674453E-1,5.153064802E-2,-2.941374779E-1
1.147751983E0,-1.669752717E0,3.555215150E-2,-3.591166735E-1
1.157761254E0,-2.232195854E0,6.537867337E-2,-3.058550358E-1
1.167772556E0,-2.020214319E0,-5.499265343E-2,-2.525933683E-1
1.177784275E0,-1.037004352E0,-3.063876629E-1,-3.282249272E-1
1.187798389E0,-2.730991244E-1,-6.504579186E-1,-4.539224207E-1
1.197813077E0,-7.652367949E-1,-8.421998620E-1,-6.254249215E-1
1.207828441E0,-2.255630970E0,-7.633726001E-1,-8.800156116E-1
1.217844483E0,-3.558410883E0,-6.355446577E-1,-1.068561912E0
1.227862972E0,-3.729913473E0,-5.109124184E-1,-1.032343984E0
1.237881983E0,-2.801030159E0,-6.451317668E-1,-8.129059672E-1
1.247903181E0,-1.359769940E0,-7.985253334E-1,-5.955983996E-1
1.257924535E0,5.392742157E-2,-6.131747365E-1,-5.071840882E-1
1.267947608E0,1.063768387E0,-2.137123793E-1,-5.135754943E-1
1.277961775E0,1.373751163E0,-2.836182900E-2,-4.485962689E-1
1.287977868E0,8.336780071E-1,3.434045017E-1,-1.790923029E-1
1.297993962E0,-2.997299433E-1,6.288869381E-1,3.821523488E-2
1.308011879E0,-1.345921874E0,8.770862222E-1,9.041165560E-2
1.318028597E0,-1.633534789E0,8.941299915E-1,1.371487509E-2
1.328047139E0,-1.037004352E0,5.926690102E-1,-1.077216864E-1
1.338062035E0,1.753639877E-1,6.963960826E-2,-2.131797522E-1
1.348078754E0,1.638994217E0,-4.842815697E-1,-1.769618392E-1
1.358095472E0,3.082384825E0,-1.020093799E0,-1.198387123E-3
1.368113962E0,3.995422840E0,-1.075485945E0,1.521951705E-1
1.378128910E0,4.082771778E0,-7.165023685E-1,2.683055699E-1
1.388145681E0,3.444564104E0,-1.231675670E-1,3.716331720E-1
1.398162295E0,2.377200603E0,5.212984085E-1,4.280905128E-1
1.408180681E0,1.228879452E0,9.953271151E-1,3.854812086E-1
1.418195733E0,4.150414169E-1,1.146590233E0,2.949363887E-1
1.428212608E0,1.370155960E-1,1.106111288E0,2.001306564E-1
1.438229170E0,3.724320829E-1,9.079779983E-1,1.149120107E-1
1.448247504E0,9.433969855E-1,4.957328141E-1,9.999874979E-2
1.458262608E0,1.469622135E0,2.383458801E-2,1.607170254E-1
1.468279587E0,1.579341054E0,-3.330184817E-1,2.129134536E-1
1.478295993E0,1.258705974E0,-5.524564981E-1,2.491313666E-1
1.488314170E0,7.090457082E-1,-6.014571786E-1,3.013277948E-1
1.498344275E0,8.801487833E-2,-4.672378302E-1,3.268933892E-1
1.508375056E0,-5.308855176E-1,-2.115819156E-1,3.034582436E-1
1.518362868E0,-1.111570716E0,7.922670245E-2,2.736317217E-1
1.528353597E0,-1.664426565E0,3.231650591E-1,2.555227578E-1
1.538346358E0,-2.062823772E0,3.529915810E-1,3.055887222E-1
1.548343858E0,-2.209825993E0,2.102503628E-1,4.216991365E-1
1.558344847E0,-2.076671839E0,7.709623873E-2,5.921363831E-1
1.568349952E0,-1.651643753E0,-1.238333434E-2,7.508561015E-1
1.578369014E0,-9.560466409E-1,-5.286218971E-2,8.477923274E-1
1.588393545E0,-1.292926520E-1,-3.581846133E-2,8.744231462E-1
1.598423077E0,5.971962810E-1,4.194355011E-2,7.966611385E-1
1.608456775E0,1.060572624E0,1.175750941E-1,6.326152682E-1
1.618492035E0,1.219292402E0,1.356840581E-1,4.046553969E-1
1.628529847E0,1.141530395E0,1.250317246E-1,1.596518010E-1
1.638563389E0,9.146357179E-1,6.431344151E-2,3.062544856E-3
1.648598025E0,5.929353237E-1,-5.392742157E-2,-1.930734888E-2
1.658596827E0,2.232994735E-1,-2.360822707E-1,4.354140162E-2
1.668596306E0,-1.633801162E-1,-3.617797792E-1,1.266295761E-1
1.678598702E0,-4.829500318E-1,-2.765611112E-1,1.916087866E-1
1.688604691E0,-6.352783442E-1,-3.901416063E-2,2.352833450E-1
1.698612868E0,-5.649729371E-1,1.836195439E-1,2.416747361E-1
1.708623389E0,-3.348826170E-1,3.434045017E-1,1.937392503E-1
1.718636410E0,-8.348763734E-2,4.009270668E-1,9.041165560E-2
1.728653754E0,9.653674066E-2,3.838833570E-1,-2.569874749E-2
1.738673441E0,1.966686398E-1,3.497959077E-1,-9.493889660E-2
1.748697087E0,2.446041405E-1,2.933385372E-1,-1.077216864E-1
1.758722452E0,2.637783289E-1,2.528596818E-1,-8.109086752E-2
1.768749795E0,2.808220685E-1,2.837514579E-1,-3.422060981E-2
1.778778025E0,3.308880031E-1,2.294245660E-1,3.501953557E-2
1.788808389E0,3.905410469E-1,2.134460658E-1,9.786828607E-2
1.798836618E0,4.310199022E-1,2.113156021E-1,1.639127284E-1
1.808865889E0,3.979976773E-1,2.187722325E-1,2.022611201E-1
1.818864275E0,2.563216984E-1,2.517944574E-1,2.054568231E-1
1.828865160E0,4.753602296E-2,2.933385372E-1,1.990654171E-1
1.838867295E0,-1.559234858E-1,2.986647189E-1,1.788259894E-1
1.848872972E0,-3.093170524E-1,2.081198990E-1,1.415428370E-1
1.858880733E0,-3.838833570E-1,5.898727849E-2,1.031944528E-1
1.868891566E0,-3.753614724E-1,-2.516612969E-2,8.508548886E-2
1.878904952E0,-3.050560951E-1,1.318225823E-2,4.673709720E-2
1.888922608E0,-2.240983993E-1,1.633801162E-1,-5.232957378E-2
1.898942660E0,-1.218360290E-1,4.041227698E-1,-2.099840641E-1
1.908966618E0,-1.531272475E-2,7.567148805E-1,-4.177044928E-1
1.918992295E0,3.861469682E-3,1.154046774E0,-5.817503929E-1
1.929020941E0,-2.848166823E-1,1.387332916E0,-6.701647043E-1
1.939050160E0,-9.379376769E-1,1.266961575E0,-6.744256616E-1
1.949081202E0,-1.521685362E0,8.419335485E-1,-6.009245515E-1
1.959098285E0,-1.343791485E0,3.316869438E-1,-5.178363919E-1
1.969116045E0,-7.236927152E-1,4.371449947E-1,-2.845503688E-1
1.979133806E0,-6.789528728E-1,7.481930256E-1,-8.109086752E-2
1.989153181E0,-1.525946259E0,7.545844316E-1,-2.366148829E-1
1.999165108E0,-2.578396559E0,2.656424940E-1,-5.572500229E-1
2.009179014E0,-2.857487679E0,-5.439345837E-1,-7.575138211E-1
2.019193129E0,-2.210891247E0,-1.120225668E0,-7.223611474E-1
2.029207556E0,-1.138201475E0,-1.336467981E0,-5.284887552E-1
2.039222347E0,-2.848166823E-1,-1.236336112E0,-3.452686667E-1
2.049239379E0,-8.921326138E-3,-7.047848105E-1,-2.472672164E-1
2.059256722E0,-1.410102248E-1,-3.155753016E-2,-2.206363827E-1
2.069276202E0,-4.201012850E-1,4.850804806E-1,-1.066564545E-1
2.079295785E0,-6.406044960E-1,6.469959021E-1,5.099803209E-2
2.089317139E0,-7.173013091E-1,4.691019952E-1,1.447385401E-1
2.099332295E0,-5.916038156E-1,1.676410437E-1,1.948044896E-1
2.109349275E0,-1.175750941E-1,-1.583202630E-1,2.715012729E-1
2.119365733E0,7.708292603E-1,-4.416722357E-1,3.577851355E-1
2.129383962E0,1.910628557E0,-5.513912439E-1,3.769593239E-1
2.139399170E0,2.960948229E0,-5.375432372E-1,3.066539466E-1
2.149416254E0,3.528717518E0,-4.981296062E-1,2.299571782E-1
2.159432608E0,3.474390745E0,-4.235632718E-1,2.107829899E-1
2.169450733E0,2.926860809E0,-3.766930401E-1,2.374138087E-1
2.179466045E0,2.095979214E0,-2.296908647E-1,2.267614752E-1
2.189483181E0,1.236336112E0,-5.991935730E-3,1.884130985E-1
2.199499483E0,5.556522012E-1,9.307473898E-2,1.053249165E-1
2.209515785E0,1.913424879E-1,1.761629134E-1,-1.611164957E-2
2.219532087E0,2.158428431E-1,2.006632686E-1,-1.258306503E-1
2.229550264E0,5.268908739E-1,1.644453406E-1,-1.801575422E-1
2.239566358E0,9.828106165E-1,3.448691964E-2,-1.769618392E-1
2.249584222E0,1.400381923E0,-1.402112991E-1,-1.450048387E-1
2.259599795E0,1.543123245E0,-2.659088075E-1,-8.854749799E-2
2.269617191E0,1.298119545E0,-3.053224087E-1,-1.291595027E-2
2.279633233E0,7.889382243E-1,-2.190385461E-1,9.254211932E-2
2.289651045E0,1.870815456E-1,-1.231675670E-1,2.299571782E-1
2.299666670E0,-3.945356905E-1,-1.238333434E-2,3.130453527E-1
2.309684066E0,-8.493902087E-1,-2.516612969E-2,3.929378390E-1
2.319700108E0,-1.106244445E0,-1.231675670E-1,4.355471432E-1
2.329717920E0,-1.132875323E0,-2.328865677E-1,4.461994767E-1
2.339733493E0,-9.880036116E-1,-3.138442934E-1,4.536561072E-1
2.349750941E0,-7.130403519E-1,-3.415403366E-1,4.600475132E-1
2.359766983E0,-3.391435742E-1,-3.138442934E-1,4.451342523E-1
2.369784847E0,5.286218971E-2,-1.774944514E-1,3.982639909E-1
2.379800420E0,3.703016341E-1,1.637795754E-2,3.290238380E-1
2.389817816E0,5.801525116E-1,1.314231306E-1,2.406095117E-1
2.399833858E0,6.547188759E-1,1.974675655E-1,1.756303012E-1
2.409851670E0,6.057181358E-1,1.633801162E-1,1.394123733E-1
2.419867295E0,4.800206423E-1,6.790860556E-3,1.085206121E-1
2.429884743E0,3.106485903E-1,-1.956034154E-1,8.828118443E-2
2.439900733E0,9.653674066E-2,-3.149095178E-1,1.298252791E-1
2.449918545E0,-1.186403260E-1,-4.182371199E-1,1.500647068E-1
2.459934170E0,-2.613815665E-1,-4.139761925E-1,1.127815470E-1
2.469951566E0,-3.039908707E-1,-3.234313726E-1,6.484606117E-2
2.479967608E0,-2.496639937E-1,-1.881467849E-1,2.649767138E-2
2.489985472E0,-1.346188188E-1,-3.155753016E-2,-6.524552125E-3
2.500001045E0,-1.424749196E-2,1.165098622E-1,-3.954677656E-2
2.510018441E0,8.055824786E-2,2.645772398E-1,-6.404713541E-2
2.520034483E0,1.529940963E-1,3.838833570E-1,-7.576470077E-2
2.530052295E0,2.190385461E-1,4.392754734E-1,-7.682993263E-2
2.540067920E0,2.616478503E-1,4.403406978E-1,-7.576470077E-2
2.550085420E0,2.616478503E-1,3.711005449E-1,-6.404713541E-2
2.560101358E0,2.403431982E-1,2.762948275E-1,-8.002562821E-2
2.570119118E0,1.977338791E-1,2.027937323E-1,-1.045259908E-1
2.580134795E0,1.103847697E-1,1.015966013E-1,-1.151783243E-1
2.590150472E0,-1.637795754E-2,-1.131810062E-2,-9.919982404E-2
2.600166202E0,-1.676410437E-1,-9.227581322E-2,-5.126433820E-2
2.610183806E0,-3.231650591E-1,-6.457975507E-2,2.010627277E-2
2.620201410E0,-4.414059222E-1,-4.926702939E-3,6.058513001E-2
2.630220785E0,-4.925371110E-1,3.555215150E-2,4.141093418E-2
2.640235108E0,-4.797543287E-1,8.881380409E-2,4.127778113E-3
2.650251306E0,-4.126446545E-1,1.143793985E-1,-5.232957378E-2
2.660267504E0,-3.103822768E-1,3.555215150E-2,-1.386134475E-1
2.670285525E0,-2.006632686E-1,-1.263632625E-1,-2.547238469E-1
2.680301983E0,-1.932066381E-1,-1.359503716E-1,-3.580514491E-1
2.690318441E0,-3.945356905E-1,3.448691964E-2,-4.464657903E-1
2.700334900E0,-8.825455308E-1,3.796224296E-1,-5.007926822E-1
2.710351358E0,-1.600512624E0,7.194317579E-1,-4.901403487E-1
2.720367816E0,-2.146977186E0,7.279536128E-1,-3.932041526E-1
2.730386097E0,-2.047910452E0,3.348826170E-1,-2.930722237E-1
2.740402295E0,-1.459901810E0,3.157084286E-1,-2.291582525E-1
2.750420264E0,-1.129679680E0,4.073184729E-1,-2.153102309E-1
2.760435733E0,-1.515293956E0,2.368811965E-1,-3.378120363E-1
2.770453025E0,-2.338719130E0,3.022598661E-2,-5.593804717E-1
2.780469222E0,-2.888379335E0,-8.588441461E-2,-6.339467764E-1
2.790486097E0,-2.720072508E0,-1.466026902E-1,-5.103797913E-1
2.800502660E0,-1.939256668E0,-7.842778414E-2,-3.420729637E-1
2.810520993E0,-1.136070967E0,9.520520270E-2,-1.769618392E-1
2.820536097E0,-6.746919751E-1,3.039908707E-1,-8.641702682E-2
2.830553025E0,-5.138418078E-1,4.296883643E-1,-1.215697154E-1
2.840569535E0,-5.436683297E-1,4.126446545E-1,-2.099840641E-1
2.850587868E0,-7.109099030E-1,3.061213493E-1,-2.472672164E-1
2.860602972E0,-9.390029311E-1,4.513924941E-2,-2.270277888E-1
2.870619900E0,-1.197854519E0,-2.733654380E-1,-2.153102309E-1
2.880636410E0,-1.484402180E0,-4.619116783E-1,-2.174406946E-1
2.890653597E0,-1.603708267E0,-5.045210123E-1,-1.567224115E-1
2.900683077E0,-1.309703946E0,-5.204994678E-1,-2.037258074E-2
2.910713337E0,-4.573844373E-1,-4.949339032E-1,1.511299312E-1
2.920703337E0,8.208951950E-1,-3.106485903E-1,3.151758313E-1
2.930696150E0,2.205698013E0,-6.351451576E-2,4.653736651E-1
2.940690837E0,3.231517553E0,1.324883550E-1,5.921363831E-1
2.950690004E0,3.602218628E0,2.464682907E-1,6.496589780E-1
2.960692400E0,3.381715298E0,3.263607621E-1,6.230281591E-1
2.970700264E0,2.872534037E0,4.062532485E-1,5.495271087E-1
2.980711931E0,2.287721157E0,4.808195531E-1,4.366123974E-1
2.990729222E0,1.724212766E0,4.776238501E-1,3.226324618E-1
3.000752608E0,1.270423532E0,3.870790601E-1,2.715012729E-1
3.010780889E0,1.048855066E0,2.155765295E-1,2.821536064E-1
3.020811618E0,1.170291662E0,1.079879999E-1,3.045234978E-1
3.030844118E0,1.667755485E0,8.135717362E-2,3.034582436E-1
3.040877712E0,2.429397106E0,1.197055578E-1,3.151758313E-1
3.050913441E0,3.212343454E0,1.655105799E-1,3.961335421E-1
3.060937452E0,3.780112505E0,1.537930220E-1,5.143743753E-1
3.070962920E0,3.951748133E0,1.921414137E-1,6.187672615E-1
3.080970889E0,3.785571814E0,7.709623873E-2,7.540518045E-1
3.090980993E0,3.393432856E0,-1.519288570E-1,8.595098853E-1
3.100991618E0,2.872534037E0,-4.214328229E-1,9.170324802E-1
3.111004743E0,2.295177698E0,-6.067833900E-1,9.532504082E-1
3.121018650E0,1.747647882E0,-6.387403607E-1,1.016099095E0
3.131035212E0,1.309837103E0,-6.078485847E-1,1.073621750E0
3.141052504E0,1.025419950E0,-5.279561281E-1,1.084274054E0
3.151072295E0,9.306141734E-1,-4.256937504E-1,1.036338568E0
3.161092556E0,9.774844646E-1,-3.244965971E-1,9.255543351E-1
3.171114952E0,1.008376241E0,-2.073209733E-1,7.678998709E-1
3.181137347E0,9.061138630E-1,-2.520607710E-1,5.846797824E-1
3.191161306E0,5.971962810E-1,-1.987991184E-1,3.173062801E-1
3.201171566E0,4.860125855E-2,-7.629731297E-2,5.206326395E-2
3.211182035E0,-6.161041260E-1,1.431406885E-1,-2.003969699E-1
3.221192972E0,-1.194658875E0,3.157084286E-1,-3.942693770E-1
3.231206410E0,-1.597316861E0,4.840152562E-1,-4.688356817E-1
3.241220577E0,-1.760297537E0,5.628424883E-1,-4.549876451E-1
3.251237347E0,-1.628208637E0,4.754934013E-1,-4.081174135E-1
3.261254795E0,-1.248985767E0,2.571206093E-1,-3.271597028E-1
3.271274691E0,-7.386059761E-1,4.940018058E-2,-2.366148829E-1
3.281295004E0,-2.134460658E-1,-7.842778414E-2,-1.758965999E-1
3.291317400E0,3.244965971E-1,-4.327509180E-2,-2.153102309E-1
3.301338806E0,8.315475583E-1,2.276935615E-2,-2.248973250E-1
3.311361775E0,1.202248573E0,6.790860556E-3,-1.705704331E-1
3.321372243E0,1.425947547E0,9.413997084E-2,-8.109086752E-2
3.331384743E0,1.538862228E0,2.677729428E-1,-3.422060981E-2
3.341397556E0,1.460034966E0,4.509930313E-1,-7.469946891E-2
3.351412608E0,1.130877972E0,4.637758136E-1,-1.588528752E-1
3.361428077E0,5.961310267E-1,3.615134656E-1,-2.462019771E-1
3.371445837E0,-1.105179265E-2,2.038589716E-1,-2.845503688E-1
3.381463910E0,-5.511249304E-1,9.307473898E-2,-1.982664913E-1
3.391484066E0,-9.741556048E-1,-4.007939249E-2,-5.446003750E-2
3.401504847E0,-1.258572817E0,-1.785596907E-1,5.951989442E-2
3.411522764E0,-1.308638811E0,-2.211690098E-1,1.447385401E-1
3.421548702E0,-1.101983547E0,-2.051905096E-1,2.214353085E-1
3.431575681E0,-6.928009391E-1,-9.547150880E-2,3.119801283E-1
3.441575941E0,-1.995980442E-1,8.774857223E-2,3.918725848E-1
3.451578493E0,2.509955168E-1,2.368811965E-1,4.302209914E-1
3.461583806E0,5.119776130E-1,3.423392773E-1,4.504604042E-1
3.471592295E0,5.492607951E-1,4.637758136E-1,4.845478833E-1
3.481604118E0,4.374113083E-1,5.585815907E-1,5.005263686E-1
3.491619379E0,2.850829959E-1,5.820167065E-1,4.760259986E-1
3.501636150E0,1.828206182E-1,6.043865681E-1,4.259600639E-1
3.511655108E0,1.966686398E-1,6.150389314E-1,3.726983964E-1
3.521679847E0,3.213009238E-1,5.063851476E-1,3.663070202E-1
3.531707139E0,4.555202723E-1,3.700353205E-1,4.291557670E-1
3.541736462E0,4.097152650E-1,3.220998347E-1,5.079829693E-1
3.551767243E0,-3.555215150E-2,5.628424883E-1,4.611127377E-1
3.561776566E0,-8.589772582E-1,1.066697717E0,2.501966059E-1
3.571787868E0,-1.670817971E0,1.524747968E0,1.584534161E-2
3.581801254E0,-2.074541330E0,1.501312852E0,-1.982664913E-1
3.591816775E0,-2.013823032E0,1.157242537E0,-2.909417748E-1
3.601833285E0,-1.728340626E0,9.186303020E-1,-1.982664913E-1
3.611850056E0,-1.508902550E0,7.045184970E-1,-5.659050494E-2
3.621867191E0,-1.455640912E0,4.691019952E-1,9.320789250E-4
3.631886358E0,-1.509967804E0,3.402087986E-1,-5.446003750E-2
3.641907347E0,-1.538729072E0,1.697715074E-1,-1.482005417E-1
3.651930004E0,-1.464162827E0,-1.025286783E-2,-3.260944486E-1
3.661953962E0,-1.276681781E0,-1.764292270E-1,-5.796199441E-1
3.671978858E0,-9.911993146E-1,-2.456693649E-1,-7.500572205E-1
3.682004327E0,-5.660381913E-1,-1.327546686E-1,-8.097102642E-1
3.692030004E0,1.238333434E-2,8.774857223E-2,-6.690995097E-1
3.702007868E0,5.726959109E-1,1.772281379E-1,-3.228987455E-1
3.711987243E0,8.677654266E-1,3.093170524E-1,-1.078548469E-2
3.721971358E0,8.049166799E-1,4.552539587E-1,2.436720580E-2
3.731961358E0,6.003919840E-1,6.224955320E-1,4.247616604E-2
3.741958025E0,5.087819099E-1,6.384740472E-1,7.230269164E-2
3.751961931E0,6.153052449E-1,4.808195531E-1,5.099803209E-2
3.761973285E0,9.157009125E-1,3.796224296E-1,2.756290510E-2
3.771991983E0,1.382272959E0,3.338173926E-1,5.193010904E-3
3.782017660E0,1.973477364E0,2.432725877E-1,-2.463351376E-2
3.792049691E0,2.640313148E0,1.133141592E-1,-3.209014609E-2
3.802087191E0,3.236843586E0,-1.604507267E-1,-3.209014609E-2
3.812128025E0,3.542565584E0,-5.631088018E-1,-2.356828004E-2
3.822172191E0,3.494630098E0,-9.433969855E-1,1.158440951E-2
3.832218493E0,3.211278200E0,-1.294923902E0,5.845466256E-2
3.842265681E0,2.864012241E0,-1.561232209E0,9.041165560E-2
3.852303233E0,2.559355497E0,-1.653907418E0,9.893351793E-2
3.862321045E0,2.337786913E0,-1.481339693E0,9.147688746E-2
3.872336670E0,2.173741102E0,-1.186270118E0,2.436720580E-2
3.882352295E0,1.966020703E0,-6.216966510E-1,-6.404713541E-2
3.892368025E0,1.715690970E0,-9.973244369E-2,-1.439396143E-1
3.902383910E0,1.435534596E0,2.944037914E-1,-1.844184697E-1
3.912399900E0,1.097855806E0,5.404726267E-1,-1.908098608E-1
3.922416097E0,6.909367442E-1,7.098446488E-1,-1.790923029E-1
3.932432452E0,2.392779738E-1,7.865414619E-1,-1.695052087E-1
3.942448962E0,-2.464682907E-1,7.109099030E-1,-1.567224115E-1
3.952443754E0,-7.481930256E-1,4.829500318E-1,-1.237001866E-1
3.962440472E0,-1.223420143E0,1.292926520E-1,-8.109086752E-2
3.972439847E0,-1.619686842E0,-2.147776037E-1,-4.167724028E-2
3.982442452E0,-1.878538489E0,-5.098471642E-1,1.797580719E-2
3.992448702E0,-1.906234503E0,-7.473941445E-1,7.869409025E-2
4.002458910E0,-1.669752717E0,-1.012637138E0,1.436733007E-1
4.012473233E0,-1.245790005E0,-1.238466501E0,2.097177505E-1
4.022491514E0,-7.556496859E-1,-1.393990517E0,3.460675776E-1
4.032513545E0,-2.155765295E-1,-1.544188380E0,6.049191952E-1
4.042538962E0,3.468665183E-1,-1.530340433E0,7.700303197E-1
4.052567347E0,8.688306808E-1,-1.503709555E0,8.882712126E-1
4.062598077E0,1.202248573E0,-1.424882293E0,9.585765600E-1
4.072630472E0,1.322619915E0,-9.178314209E-1,9.202281833E-1
4.082663858E0,1.203313828E0,-2.691044807E-1,6.954640150E-1
4.092697504E0,8.145037889E-1,4.041227698E-1,3.524589837E-1
4.102722556E0,1.977338791E-1,7.737586498E-1,6.271559745E-2
4.112739587E0,-5.639077425E-1,5.894733071E-1,1.051917579E-2
4.122754900E0,-1.293725491E0,1.143793985E-1,1.085206121E-1
4.132770264E0,-1.841255307E0,-3.649754524E-1,2.107829899E-1
4.142785733E0,-2.087324142E0,-7.069152594E-1,2.683055699E-1
4.152801410E0,-1.986127019E0,-8.006557822E-1,2.842840552E-1
4.162817243E0,-1.662296176E0,-7.292851806E-1,2.693707943E-1
4.172833337E0,-1.172288895E0,-4.832163453E-1,2.416747361E-1
4.182849639E0,-6.406044960E-1,-1.018629074E-1,2.011958808E-1
4.192866150E0,-1.687062830E-1,2.603163123E-1,1.628475040E-1
4.202844327E0,1.625811905E-1,4.967980385E-1,1.553908736E-1
4.212824743E0,3.191704452E-1,5.809514523E-1,1.607170254E-1
4.222808025E0,3.436708152E-1,4.808195531E-1,1.489994675E-1
4.232797191E0,2.936048508E-1,4.296883643E-1,1.191729456E-1
4.242793129E0,2.499302924E-1,4.733629227E-1,6.271559745E-2
4.252796410E0,2.477998286E-1,5.660381913E-1,7.323476952E-3
4.262807243E0,3.244965971E-1,6.810833812E-1,-4.913387448E-2
4.272825577E0,5.332822800E-1,7.354102731E-1,-9.919982404E-2
4.282851045E0,8.464608192E-1,7.481930256E-1,-1.098521575E-1
4.292883025E0,1.153247952E0,7.449973226E-1,-1.013302878E-1
4.302920629E0,1.304510951E0,8.419335485E-1,-6.085143611E-2
4.312962816E0,1.113834262E0,1.102915645E0,9.320789250E-4
4.323006566E0,5.002600551E-1,1.356441140E0,-1.824211515E-2
4.333052556E0,-5.756253004E-1,1.405441880E0,-6.937330216E-2
4.343099483E0,-1.681470275E0,1.115698457E0,-7.682993263E-2
4.353141150E0,-2.026605844E0,4.584496617E-1,-1.078548469E-2
4.363156514E0,-1.693187833E0,-3.681711555E-1,1.319557428E-1
4.373171931E0,-1.411966324E0,-9.636363983E-1,2.949363887E-1
4.383187452E0,-1.672948480E0,-1.164965510E0,4.398080707E-1
4.393203129E0,-2.217282534E0,-1.101051450E0,4.046553969E-1
4.403218962E0,-2.773334265E0,-6.078485847E-1,8.934641629E-2
4.413213441E0,-3.087577820E0,2.581858635E-1,-5.284887552E-1
4.423208077E0,-2.855357170E0,1.085871935E0,-1.126084447E0
4.433204431E0,-1.956300497E0,1.289331436E0,-1.195324659E0
4.443204379E0,-6.235607862E-1,1.089067578E0,-8.651023507E-1
4.453207347E0,6.685668826E-1,7.407364249E-1,-5.231625438E-1
4.463214900E0,1.350316048E0,5.447335243E-1,-4.869446456E-1
4.473227139E0,1.238466501E0,2.965342402E-1,-6.818822622E-1
4.483244066E0,7.814815640E-1,7.709623873E-2,-8.097102642E-1
4.493265525E0,4.075847864E-1,-3.475322574E-2,-8.714937568E-1
4.503291150E0,4.235632718E-1,-2.477998286E-1,-8.778851628E-1
4.513320368E0,8.880048990E-1,-4.746944606E-1,-7.330134511E-1
4.523351462E0,1.668820739E0,-5.609783530E-1,-4.677704573E-1
4.533383077E0,2.421940327E0,-5.641740561E-1,-1.141130850E-1
4.543416410E0,2.925795555E0,-5.364779830E-1,2.320876420E-1
4.553450785E0,3.212343454E0,-5.258256793E-1,5.250267386E-1
4.563485368E0,3.301822901E0,-5.716306567E-1,6.943987608E-1
4.573507868E0,3.291170597E0,-6.003919840E-1,7.157034278E-1
4.583524587E0,3.200625658E0,-4.320851564E-1,5.633751154E-1
4.593541306E0,2.943904638E0,-2.169080675E-1,1.980001926E-1
4.603558025E0,2.603029966E0,4.940018058E-2,-1.993317306E-1
4.613574743E0,2.250437975E0,1.101184636E-1,-5.050535798E-1
4.623591462E0,1.997977734E0,6.431344151E-2,-6.818822622E-1
4.633563858E0,1.929802775E0,-1.025286783E-2,-7.074478865E-1
4.643539847E0,2.029934645E0,-1.529940963E-1,-5.721632838E-1
4.653520837E0,2.227002859E0,-3.564535975E-1,-3.420729637E-1
4.663508129E0,2.418744802E0,-5.865439177E-1,-8.641702682E-2
4.673502608E0,2.379331112E0,-7.740249634E-1,1.756303012E-1
4.683504847E0,2.087457180E0,-9.242228270E-1,3.801550269E-1
4.693515160E0,1.683733940E0,-1.038202763E0,4.770912528E-1
4.703531670E0,1.254445076E0,-9.977238774E-1,5.101134777E-1
4.713554847E0,8.230256438E-1,-8.645697236E-1,4.760259986E-1
4.723585212E0,4.256937504E-1,-6.238270998E-1,3.950682878E-1
4.733620160E0,8.375394344E-2,-3.031919599E-1,3.205019832E-1
4.743660577E0,-1.921414137E-1,3.994623839E-4,2.789579034E-1
4.753705316E0,-3.828181326E-1,3.306216896E-1,2.470009029E-1
4.763753077E0,-4.808195531E-1,6.363435984E-1,1.788259894E-1
4.773802504E0,-4.584496617E-1,8.525858521E-1,8.508548886E-2
4.783852191E0,-3.593829870E-1,9.441959262E-1,1.904104091E-2
4.793876097E0,-2.283593267E-1,8.824124336E-1,-4.913387448E-2
4.803893025E0,-1.111836955E-1,7.375407219E-1,-1.332872808E-1
4.813909535E0,-3.981308267E-2,5.596467853E-1,-2.121145278E-1
4.823926045E0,2.303566411E-2,3.753614724E-1,-2.717675865E-1
4.833916045E0,1.082543060E-1,2.230331600E-1,-3.090507388E-1
4.843908181E0,1.902772486E-1,2.209026963E-1,-2.866808474E-1
4.853903337E0,2.350170314E-1,3.189041317E-1,-2.206363827E-1
4.863902243E0,2.307561040E-1,3.157084286E-1,-1.492657810E-1
4.873905472E0,1.189066395E-1,2.155765295E-1,-7.682993263E-2
4.883913441E0,-1.229012609E-1,7.283531129E-2,-9.720250964E-3
4.893926254E0,-4.339492917E-1,-6.457975507E-2,3.075860441E-2
4.903943962E0,-7.939980626E-1,-1.615159512E-1,1.478010789E-2
4.913966254E0,-1.186136961E0,-2.477998286E-1,-3.315537795E-2
4.923992712E0,-1.562164187E0,-2.882786989E-1,-8.428656310E-2
4.934021722E0,-1.851907611E0,-3.063876629E-1,-1.013302878E-1
4.944053806E0,-1.954169989E0,-3.287575543E-1,-9.067796171E-2
4.954087087E0,-1.828472495E0,-3.149095178E-1,-6.191666797E-2
4.964121931E0,-1.492924094E0,-2.723001838E-1,-3.102491237E-2
4.974157608E0,-1.016764879E0,-1.849510819E-1,-1.078548469E-2
4.984193337E0,-4.914718866E-1,-4.926702939E-3,1.051917579E-2
4.994211097E0,-2.596505545E-2,1.878804713E-1,2.436720580E-2
5.004227556E0,3.021267056E-1,2.901428342E-1,4.354140162E-2
5.014244014E0,4.736292362E-1,3.540568352E-1,6.697652489E-2
5.024260472E0,5.055862069E-1,4.360797703E-1,7.123745978E-2
5.034276931E0,4.448679388E-1,4.541887343E-1,4.567186534E-2
5.044293441E0,3.415403366E-1,3.679048419E-1,1.158440951E-2
5.054284222E0,2.403431982E-1,2.251636237E-1,-2.263620263E-3
5.064277087E0,1.647116542E-1,1.452711523E-1,-3.528584540E-2
5.074271827E0,1.284937263E-1,7.496577501E-2,-8.641702682E-2
5.084270316E0,1.572550237E-1,-1.731003635E-3,-1.279611140E-1
5.094273181E0,2.499302924E-1,-3.155753016E-2,-1.471353173E-1
5.104280837E0,3.884105980E-1,-5.605788901E-2,-1.631138027E-1
5.114293389E0,5.098471642E-1,-1.029281393E-1,-1.673747450E-1
5.124310837E0,5.183690190E-1,-8.268871158E-2,-1.673747450E-1
5.134332920E0,3.458012640E-1,2.383458801E-2,-1.482005417E-1
5.144357452E0,-1.857500076E-1,1.324883550E-1,-1.119826213E-1
5.154384743E0,-1.110505462E0,3.146432042E-1,-4.593817517E-2
5.164415368E0,-2.218347788E0,4.946675897E-1,-5.765573680E-2
5.174448650E0,-2.887314081E0,4.691019952E-1,-1.886793971E-1
5.184481983E0,-2.791443110E0,3.157084286E-1,-2.696371078E-1
5.194501202E0,-2.222608805E0,2.986647189E-1,-1.865489334E-1
5.204517920E0,-1.601577878E0,3.242303133E-1,-4.806863889E-2
5.214535316E0,-1.238333344E0,2.134460658E-1,-4.274247587E-2
5.224554431E0,-1.110505462E0,1.932066381E-1,-1.652442664E-1
5.234575056E0,-1.006112576E0,2.134460658E-1,-3.101159632E-1
5.244584900E0,-9.432638288E-1,2.326202542E-1,-3.484643400E-1
5.254595681E0,-9.091764092E-1,3.189041317E-1,-3.591166735E-1
5.264608754E0,-8.259550333E-1,3.018604219E-1,-4.155740440E-1
5.274623025E0,-6.885399818E-1,1.868152469E-1,-5.220973492E-1
5.284639691E0,-5.021241903E-1,1.318225823E-2,-5.753589869E-1
5.294657556E0,-2.805557549E-1,-3.223661482E-1,-5.327496529E-1
5.304677556E0,-1.388797611E-1,-7.878729701E-1,-4.166392684E-1
5.314698389E0,-1.814890802E-1,-1.166030645E0,-2.227668613E-1
5.324720993E0,-3.018604219E-1,-1.315163374E0,-8.655018173E-3
5.334743962E0,-3.476654291E-1,-1.123421431E0,1.884130985E-1
5.344752295E0,-1.463363916E-1,-6.898715496E-1,3.950682878E-1
5.354761670E0,3.149095178E-1,-2.477998286E-1,5.932016373E-1
5.364773389E0,8.581783772E-1,5.685681105E-2,7.444647551E-1
5.374786462E0,1.337533236E0,2.006632686E-1,8.019872904E-1
5.384802087E0,1.726343274E0,1.932066381E-1,7.561823130E-1
5.394819118E0,1.955368400E0,1.559234858E-1,6.411371231E-1
5.404838545E0,1.996912479E0,1.420754492E-1,4.952002168E-1
5.414859118E0,1.890389204E0,1.900109351E-1,3.524589837E-1
5.424881775E0,1.672016382E0,2.209026963E-1,1.798912287E-1
5.434905056E0,1.483470082E0,2.688381970E-1,2.862813696E-2
5.444928650E0,1.314098120E0,2.198374718E-1,-6.724283099E-2
5.454936462E0,1.131943226E0,6.324820966E-2,-1.439396143E-1
5.464946358E0,9.188966155E-1,-7.416684926E-2,-1.684399694E-1
5.474957504E0,7.133066654E-1,-1.774944514E-1,-1.375482082E-1
5.484971202E0,5.620435476E-1,-2.073209733E-1,-9.493889660E-2
5.494986306E0,3.916063011E-1,-1.742987484E-1,-5.339480564E-2
5.505003910E0,1.647116542E-1,-1.668421179E-1,9.320789250E-4
5.515022816E0,-1.133141592E-1,-1.753639877E-1,6.697652489E-2
5.525043962E0,-4.232969582E-1,-1.892120093E-1,1.447385401E-1
5.535065993E0,-6.821485758E-1,-2.126471400E-1,2.225005478E-1
5.545088650E0,-8.121070266E-1,-2.563216984E-1,3.119801283E-1
5.555103910E0,-7.673672438E-1,-3.415403366E-1,4.323514402E-1
5.565120993E0,-5.468640327E-1,-3.830844164E-1,5.324833393E-1
5.575138702E0,-1.580539495E-1,-3.170399666E-1,5.569837093E-1
5.585158077E0,3.458012640E-1,-1.828206182E-1,5.303528905E-1
5.595177868E0,8.762873411E-1,-3.368799388E-2,4.675041437E-1
5.605199014E0,1.343924642E0,1.250317246E-1,3.513937294E-1
5.615220212E0,1.661364079E0,2.422073632E-1,2.363485843E-1
5.625242347E0,1.812627196E0,2.880123854E-1,1.447385401E-1
5.635255525E0,1.759365439E0,3.572525382E-1,6.591129303E-2
5.645269952E0,1.453643560E0,4.201012850E-1,9.320789250E-4
5.655271358E0,9.604407549E-1,4.403406978E-1,-5.019910634E-2
5.665273337E0,3.596493006E-1,3.998618424E-1,-7.896039635E-2
5.675276462E0,-2.517944574E-1,3.146432042E-1,-7.896039635E-2
5.685281358E0,-7.588453889E-1,1.612496525E-1,-5.978620425E-2
5.695289014E0,-1.074287534E0,-1.131810062E-2,-3.315537795E-2
5.705298962E0,-1.147788525E0,-2.073209733E-1,1.997311832E-3
5.715312087E0,-9.890688658E-1,-3.436708152E-1,4.673709720E-2
5.725329483E0,-6.640396118E-1,-4.256937504E-1,8.082455397E-2
5.735349900E0,-2.826862037E-1,-4.256937504E-1,9.573781490E-2
5.745374118E0,4.114462435E-2,-3.468665183E-1,1.031944528E-1
5.755399952E0,2.371474952E-1,-2.126471400E-1,1.053249165E-1
5.765428702E0,2.957353294E-1,-4.647079110E-2,1.095858440E-1
5.775458702E0,2.509955168E-1,1.133141592E-1,1.042596847E-1
5.785490472E0,1.306242049E-1,2.262288630E-1,8.615072072E-2
5.795522243E0,-3.981308267E-2,3.263607621E-1,5.419373140E-2
5.805554535E0,-2.123808414E-1,3.892095089E-1,8.388710208E-3
5.815556670E0,-3.583177626E-1,3.593829870E-1,-4.700340703E-2
5.825560420E0,-4.627105892E-1,2.613815665E-1,-9.493889660E-2
5.835565160E0,-4.861457348E-1,1.495320797E-1,-1.002650559E-1
5.845572452E0,-3.721657991E-1,1.464695437E-3,-7.682993263E-2
5.855581462E0,-1.442059278E-1,-1.348851323E-1,-4.700340703E-2
5.865593545E0,1.167761683E-1,-2.190385461E-1,-7.589785382E-3
5.875607660E0,3.181052208E-1,-1.849510819E-1,2.223674022E-2
5.885624900E0,4.033238590E-1,-2.942706272E-2,1.158440951E-2
5.895644066E0,2.616478503E-1,1.250317246E-1,-6.617759913E-2
5.905666045E0,-2.517944574E-1,3.487306535E-1,-1.908098608E-1
5.915689431E0,-1.086005092E0,4.616453648E-1,-3.239639997E-1
5.925715004E0,-2.001040220E0,4.403406978E-1,-4.912055731E-1
5.935741254E0,-2.698767900E0,2.986647189E-1,-6.051855087E-1
5.945768910E0,-2.903292656E0,-1.167761683E-1,-6.105116606E-1
5.955791097E0,-2.561352730E0,-7.292851806E-1,-4.688356817E-1
5.965814118E0,-2.055367231E0,-1.196922421E0,-2.046578974E-1
5.975824900E0,-1.802906871E0,-1.240597010E0,-4.274247587E-2
5.985836983E0,-1.904103994E0,-8.837439418E-1,-3.635107726E-2
5.995849431E0,-2.124607325E0,-3.713668585E-1,-4.167724028E-2
6.005863441E0,-2.244978666E0,1.708367467E-1,-9.493889660E-2
6.015877972E0,-2.265218019E0,6.150389314E-1,-1.801575422E-1
6.025894222E0,-2.145911932E0,8.216941357E-1,-2.419410497E-1
6.035911045E0,-1.809298277E0,8.429988027E-1,-2.770937383E-1
6.045929483E0,-1.348052382E0,5.479292274E-1,-3.687037826E-1
6.055948337E0,-8.302159905E-1,1.697715074E-1,-4.848141670E-1
6.065968597E0,-3.924052119E-1,-2.477998286E-1,-5.327496529E-1
6.075988962E0,-2.219679356E-1,-4.693683088E-1,-4.890751243E-1
6.086010368E0,-2.528596818E-1,-6.930672526E-1,-3.612471521E-1
6.096025889E0,-3.742962480E-1,-7.729597092E-1,-2.046578974E-1
6.106042556E0,-4.882761836E-1,-7.420679331E-1,-3.741630912E-2
6.116059222E0,-3.402087986E-1,-6.280879974E-1,1.149120107E-1
6.126076983E0,1.391460598E-1,-4.299546778E-1,2.246310115E-1
6.136092868E0,8.645697236E-1,-1.231675670E-1,2.906754613E-1
6.146109847E0,1.675212026E0,1.740324497E-1,2.832188308E-1
6.156108702E0,2.344178438E0,3.732310236E-1,2.225005478E-1
6.166108233E0,2.676531076E0,4.744281471E-1,1.489994675E-1
6.176109118E0,2.631791353E0,4.243622124E-1,9.254211932E-2
6.186112035E0,2.326069355E0,2.688381970E-1,7.336792350E-2
6.196118077E0,1.870149732E0,7.709623873E-2,8.082455397E-2
6.206126827E0,1.383338213E0,-1.316894293E-1,1.053249165E-1
6.216139170E0,1.020093799E0,-3.170399666E-1,1.127815470E-1
6.226156254E0,8.411346078E-1,-4.661726058E-1,1.042596847E-1
6.236176775E0,8.283518553E-1,-5.918700695E-1,1.127815470E-1
6.246201566E0,9.359403849E-1,-6.962629557E-1,1.149120107E-1
6.256229014E0,1.099986196E0,-6.461969614E-1,9.254211932E-2
6.266257920E0,1.238466501E0,-4.842815697E-1,6.484606117E-2
6.276288441E0,1.309837103E0,-3.458012640E-1,5.525896326E-2
6.286321045E0,1.282141089E0,-1.476679295E-1,4.247616604E-2
6.296343181E0,1.142595530E0,9.627043456E-2,5.193010904E-3
6.306366931E0,9.018529058E-1,3.423392773E-1,-1.930734888E-2
6.316390785E0,5.918700695E-1,5.372769237E-1,-8.655018173E-3
6.326415577E0,2.712349594E-1,6.395393014E-1,5.951989442E-2
6.336427868E0,-4.660394508E-3,6.214303374E-1,1.543256342E-1
6.346441410E0,-2.177069932E-1,4.509930313E-1,2.256962508E-1
6.356455160E0,-3.732310236E-1,2.294245660E-1,2.736317217E-1
6.366469275E0,-5.127765536E-1,6.324820966E-2,2.821536064E-1
6.376477191E0,-6.597787142E-1,-4.540555924E-2,2.704360485E-1
6.386487243E0,-7.311493158E-1,-1.221023351E-1,2.352833450E-1
6.396498493E0,-6.917356849E-1,-1.263632625E-1,1.639127284E-1
6.406512191E0,-5.308855176E-1,-8.588441461E-2,6.697652489E-2
6.416527295E0,-2.581858635E-1,-2.516612969E-2,-1.078548469E-2
6.426544900E0,7.203638554E-2,6.111774594E-2,-6.830807030E-2
6.436563806E0,4.182371199E-1,1.942718774E-1,-1.130478531E-1
6.446584952E0,7.356765866E-1,3.892095089E-1,-1.332872808E-1
6.456606254E0,9.902672768E-1,5.234288573E-1,-1.428743750E-1
6.466628233E0,1.138334632E0,5.788210034E-1,-1.482005417E-1
6.476644691E0,1.136204123E0,5.756253004E-1,-1.716356725E-1
6.486662920E0,9.647016525E-1,5.202331543E-1,-2.185059190E-1
6.496681722E0,6.387403607E-1,4.062532485E-1,-2.632457018E-1
6.506702087E0,1.796249151E-1,1.932066381E-1,-2.952027023E-1
6.516722712E0,-3.572525382E-1,-8.375394344E-2,-2.813546658E-1
6.526744483E0,-8.451292515E-1,-3.351489305E-1,-2.227668613E-1
6.536762920E0,-1.165897489E0,-5.599130988E-1,-1.631138027E-1
6.546782347E0,-1.255377173E0,-6.312837005E-1,-1.023955271E-1
6.556796410E0,-1.088135481E0,-5.971962810E-1,-5.552527308E-2
6.566811618E0,-6.853442788E-1,-5.290213227E-1,-1.291595027E-2
6.576812243E0,-1.474016160E-1,-3.564535975E-1,2.969337068E-2
6.586815264E0,3.830844164E-1,-1.039933711E-1,6.484606117E-2
6.596820056E0,7.420679331E-1,1.154446304E-1,5.738943070E-2
6.606828129E0,8.805482388E-1,2.251636237E-1,1.997311832E-3
6.616838597E0,8.603088260E-1,2.549901605E-1,-5.232957378E-2
6.626852764E0,7.580464482E-1,2.347507328E-1,-9.067796171E-2
6.636869431E0,5.929353237E-1,1.942718774E-1,-1.130478531E-1
6.646889587E0,3.713668585E-1,1.303578913E-1,-1.300915778E-1
6.656911202E0,1.497983932E-1,6.218297780E-2,-1.364829838E-1
6.666934014E0,-2.170412242E-2,3.235645220E-2,-1.183740199E-1
6.676957712E0,-1.324883550E-1,5.579157919E-2,-9.813459218E-2
6.686983806E0,-1.857500076E-1,1.324883550E-1,-9.600412846E-2
6.697010733E0,-1.282274276E-1,7.177007198E-2,-1.151783243E-1
6.707030004E0,-3.994623839E-4,8.774857223E-2,-1.428743750E-1
6.717046775E0,1.039933711E-1,1.623148769E-1,-1.758965999E-1
6.727065316E0,5.925358832E-2,1.516625583E-1,-2.195711583E-1
6.737084379E0,-2.837514579E-1,-7.057168987E-3,-2.547238469E-1
6.747105004E0,-9.432638288E-1,-2.179733068E-1,-2.355496585E-1
6.757113806E0,-1.754971385E0,-4.619116783E-1,-2.163754553E-1
6.767124691E0,-2.308892488E0,-6.323489547E-1,-2.525933683E-1
6.777136045E0,-2.444177151E0,-5.844134688E-1,-2.579195499E-1
6.787149847E0,-2.461220980E0,-5.918700695E-1,-2.493976802E-1
6.797165004E0,-2.519808769E0,-7.974600792E-1,-2.909417748E-1
6.807182608E0,-2.476134062E0,-9.306141734E-1,-3.985303044E-1
6.817201462E0,-2.307827234E0,-7.910686731E-1,-4.784227908E-1
6.827222504E0,-2.077737093E0,-5.215647221E-1,-4.741618633E-1
6.837244379E0,-1.896647453E0,-3.095833361E-1,-4.102478623E-1
6.847264587E0,-1.802906871E0,-7.736254483E-2,-3.633776009E-1
6.857281358E0,-1.677209377E0,2.063889056E-2,-3.527252972E-1
6.867299952E0,-1.369357109E0,-1.103847697E-1,-3.782908916E-1
6.877319066E0,-9.336767197E-1,-4.011933804E-1,-4.294220507E-1
6.887331618E0,-5.702991486E-1,-6.014571786E-1,-4.464657903E-1
6.897344327E0,-3.370130956E-1,-6.589797735E-1,-3.559209704E-1
6.907357347E0,-1.197055578E-1,-6.238270998E-1,-1.684399694E-1
6.917370785E0,1.252980381E-1,-5.215647221E-1,6.258244161E-3
6.927386566E0,3.724320829E-1,-3.596493006E-1,1.234338731E-1
6.937403545E0,5.918700695E-1,-2.563216984E-1,2.150439173E-1
6.947422764E0,7.836120725E-1,-2.499302924E-1,3.066539466E-1
6.957442243E0,9.774844646E-1,-3.191704452E-1,3.748288751E-1
6.967461879E0,1.147921681E0,-4.054543078E-1,3.940030634E-1
6.977481514E0,1.276814938E0,-3.724320829E-1,3.673722446E-1
6.987501150E0,1.386533976E0,-2.435389012E-1,2.896102369E-1
6.997521254E0,1.498383403E0,-7.416684926E-2,1.756303012E-1
7.007542816E0,1.608102441E0,9.307473898E-2,7.336792350E-2
7.017564483E0,1.661364079E0,3.018604219E-1,2.543243766E-2
7.027566254E0,1.570819259E0,4.573844373E-1,2.969337068E-2
7.037568597E0,1.384403467E0,4.499278069E-1,4.673709720E-2
7.047572087E0,1.129812717E0,4.967980385E-1,4.780233279E-2
7.057577191E0,8.347432017E-1,5.202331543E-1,4.886756465E-2
7.067586097E0,5.652392507E-1,5.053198934E-1,3.821523488E-2
7.077597868E0,3.404751122E-1,4.126446545E-1,2.543243766E-2
7.087611879E0,1.412765235E-1,3.583177626E-1,8.388710208E-3
7.097628181E0,-3.768261895E-2,3.252955377E-1,-4.394086078E-3
7.107646670E0,-1.580539495E-1,2.528596818E-1,-1.185071748E-2
7.117667191E0,-2.400768995E-1,1.814890802E-1,-1.291595027E-2
7.127691306E0,-3.082517982E-1,1.399449855E-1,2.543243766E-2
7.137717504E0,-3.380783200E-1,6.857437640E-2,7.017222792E-2
7.147746410E0,-2.358159572E-1,-5.286218971E-2,1.319557428E-1
7.157775629E0,4.860125855E-2,-1.615159512E-1,1.969349533E-1
7.167800837E0,4.896077216E-1,-2.339518070E-1,2.512618303E-1
7.177817608E0,9.966586232E-1,-2.019948065E-1,2.874797583E-1
7.187834379E0,1.476013541E0,-1.466026902E-1,2.853493094E-1
7.197851150E0,1.876541138E0,-7.842778414E-2,2.736317217E-1
7.207867868E0,2.136457920E0,2.063889056E-2,2.576532364E-1
7.217884587E0,2.188654423E0,9.520520270E-2,2.118482143E-1
7.227901306E0,2.023543358E0,9.200949967E-2,1.276948154E-1
7.237918025E0,1.664559722E0,8.135717362E-2,1.371487509E-2
7.247944014E0,1.118095160E0,1.069227681E-1,-8.109086752E-2
7.257954639E0,4.746944606E-1,1.378145218E-1,-8.961272985E-2
7.267967139E0,-1.633801162E-1,8.135717362E-2,-3.315537795E-2
7.277979952E0,-6.725615263E-1,-1.557903271E-2,2.649767138E-2
7.287993129E0,-9.603075981E-1,-1.583202630E-1,6.591129303E-2
7.298006775E0,-9.635032415E-1,-3.085181117E-1,7.762885839E-2
7.308020993E0,-6.853442788E-1,-2.659088075E-1,8.295502514E-2
7.318035889E0,-2.539249361E-1,-8.908011019E-2,1.010639817E-1
7.328053337E0,5.392742157E-2,-8.481918275E-2,1.394123733E-1
7.338071358E0,1.902772486E-1,-1.877473295E-2,1.095858440E-1
7.348091722E0,4.640421271E-1,2.485987544E-1,2.117150649E-2
7.358112347E0,7.250242233E-1,4.126446545E-1,-8.655018173E-3
7.368133077E0,8.262213469E-1,3.892095089E-1,-4.394086078E-3
7.378152816E0,7.537854910E-1,3.146432042E-1,-1.291595027E-2
7.388169587E0,5.641740561E-1,2.912080884E-1,-5.339480564E-2
7.398186358E0,3.244965971E-1,3.263607621E-1,-8.748225868E-2
7.408204900E0,1.082543060E-1,3.146432042E-1,-1.077216864E-1
7.418219847E0,-3.022598661E-2,2.187722325E-1,-1.418091506E-1
7.428234847E0,-6.750914454E-2,7.603100687E-2,-2.067883611E-1
7.438249952E0,-3.129122034E-2,2.489982173E-2,-2.824199200E-1
7.448265368E0,2.942706272E-2,9.307473898E-2,-3.399424851E-1
7.458280993E0,3.581846133E-2,2.070546746E-1,-3.974650800E-1
7.468298650E0,-1.367492825E-1,2.922733128E-1,-4.741618633E-1
7.478316462E0,-6.043865681E-1,2.805557549E-1,-5.529890656E-1
7.488334379E0,-1.386400819E0,1.324883550E-1,-6.169030666E-1
7.498352347E0,-2.189586401E0,-1.774944514E-1,-6.552514434E-1
7.508370316E0,-2.703028679E0,-3.404751122E-1,-5.849460959E-1
7.518387452E0,-2.886248827E0,-4.331503808E-1,-3.900084496E-1
7.528406358E0,-2.934184313E0,-4.821510911E-1,-1.758965999E-1
7.538420993E0,-3.034316301E0,-4.320851564E-1,-5.459319334E-3
7.548437504E0,-3.101425886E0,-2.158428431E-1,8.828118443E-2
7.558454014E0,-3.099295378E0,-1.391460598E-1,1.351514459E-1
7.568470525E0,-3.003424406E0,-6.564498693E-2,1.830869317E-1
7.578487035E0,-2.832987309E0,-1.284937263E-1,2.246310115E-1
7.588504275E0,-2.586918354E0,-4.469984174E-1,2.384790480E-1
7.598522868E0,-2.260957003E0,-8.198299408E-1,2.235657871E-1
7.608543077E0,-1.792254567E0,-1.157508850E0,1.553908736E-1
7.618555108E0,-1.192528367E0,-1.405708075E0,2.756290510E-2
7.628567295E0,-6.288869381E-1,-1.365229249E0,-8.854749799E-2
7.638579847E0,-2.123808414E-1,-1.005180478E0,-1.407439113E-1
7.648592920E0,1.380808353E-1,-4.395417869E-1,-1.503310055E-1
7.658606618E0,5.322170258E-1,1.655105799E-1,-1.599181145E-1
7.668621045E0,1.010506630E0,5.926690102E-1,-1.908098608E-1
7.678636254E0,1.484535336E0,8.046503663E-1,-2.430062890E-1
7.688652295E0,1.832866549E0,9.431306720E-1,-2.707023323E-1
7.698669170E0,2.103435755E0,9.623048902E-1,-2.515281439E-1
7.708686827E0,2.309025764E0,8.153027296E-1,-2.153102309E-1
7.718705212E0,2.438984156E0,5.884081125E-1,-1.599181145E-1
7.728725993E0,2.521007061E0,3.455349505E-1,-7.363422960E-2
7.738747139E0,2.550833702E0,1.026618332E-1,-1.930734888E-2
7.748770264E0,2.501832962E0,-7.416684926E-2,-4.394086078E-3
7.758789795E0,2.382526875E0,-1.732335240E-1,-1.611164957E-2
7.768806566E0,2.213154793E0,-1.689725816E-1,-3.528584540E-2
7.778823337E0,1.997977734E0,-1.039933711E-1,-6.191666797E-2
7.788841879E0,1.771082997E0,1.211702544E-2,-8.854749799E-2
7.798856879E0,1.547384143E0,1.719019860E-1,-1.045259908E-1
7.808873754E0,1.307706714E0,3.423392773E-1,-1.055912226E-1
7.818890368E0,1.039268017E0,4.808195531E-1,-9.919982404E-2
7.828906983E0,7.228937745E-1,5.884081125E-1,-6.511236727E-2
7.838923597E0,3.479317427E-1,5.894733071E-1,4.127778113E-3
7.848940212E0,-3.129122034E-2,5.426030755E-1,1.010639817E-1
7.858956827E0,-3.284912407E-1,4.296883643E-1,2.107829899E-1
7.868975264E0,-4.691019952E-1,2.336854935E-1,2.960016131E-1
7.878990993E0,-4.786891043E-1,-4.434032366E-2,3.492632806E-1
7.889006722E0,-4.083836973E-1,-3.234313726E-1,3.748288751E-1
7.899022504E0,-2.837514579E-1,-5.620435476E-1,3.918725848E-1
7.909038389E0,-1.047922969E-1,-7.633726001E-1,3.737636507E-1
7.919054483E0,9.973244369E-2,-8.443303108E-1,3.258281648E-1
7.929072556E0,2.595174015E-1,-9.316794276E-1,2.619141638E-1
7.939090629E0,4.086500108E-1,-8.890700936E-1,1.649779677E-1
7.949108337E0,6.110442877E-1,-7.708292603E-1,7.123745978E-2
7.959125108E0,8.176994920E-1,-5.886744261E-1,-6.524552125E-3
7.969141879E0,9.806801677E-1,-4.065195620E-1,-5.339480564E-2
7.979158650E0,1.042463660E0,-2.605826259E-1,-3.741630912E-2
7.989177191E0,9.892020226E-1,-1.593854874E-1,1.691057347E-2
7.999192191E0,8.049166799E-1,-4.966649041E-2,7.656362653E-2
8.009209014E0,5.247604251E-1,1.505973190E-1,9.147688746E-2
8.019225733E0,2.051905096E-1,3.689700961E-1,2.862813696E-2
8.029242452E0,-1.303578913E-1,5.212984085E-1,-5.339480564E-2
8.039259170E0,-4.808195531E-1,5.031894445E-1,-9.280842543E-2
8.049276566E0,-8.121070266E-1,3.913399875E-1,-7.256899774E-2
8.059292764E0,-1.052982807E0,2.794905007E-1,-3.741630912E-2
8.069310733E0,-1.159506202E0,2.027937323E-1,-3.209014609E-2
8.079326306E0,-1.114766359E0,1.324883550E-1,-4.487293959E-2
8.089341879E0,-9.240896702E-1,1.420754492E-1,-5.232957378E-2
8.099357504E0,-6.256912351E-1,2.432725877E-1,-3.954677656E-2
8.109373233E0,-2.901428342E-1,3.497959077E-1,-1.078548469E-2
8.119389118E0,9.187635034E-3,4.083836973E-1,3.075860441E-2
8.129407035E0,2.019948065E-1,4.509930313E-1,4.993279651E-2
8.139425004E0,2.403431982E-1,4.264926612E-1,-8.655018173E-3
8.149444795E0,1.114500016E-1,3.892095089E-1,-1.194392517E-1
8.159460472E0,-1.197055578E-1,3.252955377E-1,-2.206363827E-1
8.169476150E0,-3.732310236E-1,2.294245660E-1,-2.653761804E-1
8.179491879E0,-6.203650832E-1,1.750976741E-1,-2.696371078E-1
8.189507868E0,-7.652367949E-1,1.271621883E-1,-2.707023323E-1
8.199523962E0,-7.247579098E-1,6.750914454E-2,-2.398105860E-1
8.209540212E0,-5.511249304E-1,1.633801162E-1,-1.695052087E-1
8.219556618E0,-3.860138059E-1,4.573844373E-1,-1.045259908E-1
8.229573181E0,-4.009270668E-1,7.567148805E-1,-9.919982404E-2
8.239589900E0,-7.567148805E-1,8.834776282E-1,-1.524614692E-1
8.249607504E0,-1.322486758E0,7.354102731E-1,-3.186378181E-1
8.259625212E0,-1.745384336E0,5.266245604E-1,-5.284887552E-1
8.269644743E0,-1.922212958E0,2.390116602E-1,-5.370106101E-1
8.279661722E0,-2.088389397E0,-1.902772486E-1,-3.420729637E-1
8.289678493E0,-2.320610046E0,-5.023905039E-1,-1.705704331E-1
8.299695264E0,-2.552830935E0,-5.673697591E-1,-1.513962448E-1
8.309712035E0,-2.679593563E0,-2.999962568E-1,-2.067883611E-1
8.319728754E0,-2.575200796E0,6.857437640E-2,-2.579195499E-1
8.329747295E0,-2.237521887E0,4.818847775E-1,-2.909417748E-1
8.339762347E0,-1.789058805E0,6.757571697E-1,-3.292901516E-1
8.349777452E0,-1.349117637E0,4.201012850E-1,-3.356815577E-1
8.359792660E0,-9.954602718E-1,-6.457975507E-2,-2.994636297E-1
8.369808025E0,-6.991923451E-1,-4.491288662E-1,-3.218335211E-1
8.379824483E0,-5.276898146E-1,-7.292851806E-1,-3.633776009E-1
8.389842920E0,-5.457987785E-1,-8.869396448E-1,-3.623123765E-1
8.399861410E0,-6.991923451E-1,-8.017209768E-1,-3.346163332E-1
8.409880577E0,-8.963935971E-1,-5.812177658E-1,-2.323539555E-1
8.419896514E0,-9.698946476E-1,-3.958672285E-1,-3.315537795E-2
8.429912452E0,-8.238245845E-1,-3.063876629E-1,1.937392503E-1
8.439928441E0,-4.211665094E-1,-1.657768935E-1,3.055887222E-1
8.449945212E0,2.488650680E-1,7.390054315E-2,2.949363887E-1
8.459962035E0,1.040333152E0,2.784252763E-1,2.246310115E-1
8.469980681E0,1.759365439E0,3.870790601E-1,1.223686412E-1
8.479997139E0,2.328199863E0,3.647091687E-1,8.388710208E-3
8.490013597E0,2.705292463E0,2.805557549E-1,-9.387365729E-2
8.500030056E0,2.883186340E0,1.836195439E-1,-1.609833390E-1
8.510046514E0,2.892773390E0,7.816147059E-2,-1.652442664E-1
8.520062972E0,2.759619236E0,-2.942706272E-2,-1.247654185E-1
8.530081254E0,2.452832222E0,-4.220985994E-2,-6.617759913E-2
8.540097764E0,2.067217827E0,-6.884068251E-2,1.997311832E-3
8.550114275E0,1.680538297E0,-6.244928762E-2,5.845466256E-2
8.560130785E0,1.357772589E0,-8.481918275E-2,1.031944528E-1
8.570147295E0,1.117030025E0,-8.162347972E-2,1.468690038E-1
8.580163806E0,9.402012825E-1,-1.167761683E-1,1.894783229E-1
8.590182139E0,8.155690432E-1,-1.636464298E-1,2.406095117E-1
8.600198441E0,7.473941445E-1,-1.902772486E-1,3.002625704E-1
8.610216514E0,7.058500051E-1,-1.519288570E-1,3.631113172E-1
8.620231983E0,6.706973314E-1,-1.125152409E-1,4.472647011E-1
8.630247504E0,6.312837005E-1,-6.244928762E-2,5.569837093E-1
8.640263077E0,5.822830200E-1,-2.942706272E-2,6.581808329E-1
8.650278754E0,5.226299763E-1,-1.451379992E-2,6.858769059E-1
8.660294587E0,4.725640118E-1,-4.966649041E-2,6.230281591E-1
8.670310629E0,4.182371199E-1,-1.061238423E-1,4.866783321E-1
8.680326879E0,3.298227787E-1,-1.284937263E-1,3.141105771E-1
8.690343337E0,1.881467849E-1,-1.071890742E-1,1.489994675E-1
8.700360004E0,2.623136342E-2,-5.073172227E-2,9.453942999E-3
8.710376879E0,-8.668334037E-2,1.957365684E-2,-1.237001866E-1
8.720393962E0,-1.047922969E-1,9.840089828E-2,-2.398105860E-1
8.730413025E0,-2.489982173E-2,1.889457107E-1,-3.228987455E-1
8.740432087E0,1.647116542E-1,2.805557549E-1,-3.431381881E-1
8.750450056E0,4.597811997E-1,3.135779798E-1,-3.260944486E-1
8.760466827E0,8.102428913E-1,3.657743931E-1,-3.133116663E-1
8.770483597E0,1.179878712E0,4.627105892E-1,-2.738980353E-1
8.780500368E0,1.505840063E0,6.086475253E-1,-2.376801223E-1
8.790518962E0,1.734865189E0,7.087793946E-1,-2.099840641E-1
8.800533910E0,1.811561942E0,7.758890986E-1,-2.185059190E-1
8.810550681E0,1.665624976E0,8.302159905E-1,-2.046578974E-1
8.820567452E0,1.337533236E0,8.483249545E-1,-1.226349548E-1
8.830584222E0,8.954614997E-1,7.449973226E-1,-5.446003750E-2
8.840600993E0,2.872134447E-1,4.691019952E-1,-2.356828004E-2
8.850617764E0,-4.392754734E-1,9.413997084E-2,-6.524552125E-3
8.860634535E0,-1.111570716E0,-1.274285018E-1,5.312849581E-2
8.870653129E0,-1.615425825E0,-2.648435533E-1,1.607170254E-1
8.880668129E0,-1.948843837E0,-4.011933804E-1,2.736317217E-1
8.890683181E0,-2.051106215E0,-4.416722357E-1,2.917406857E-1
8.900698337E0,-1.784797907E0,-2.818872929E-1,1.543256342E-1
8.910713650E0,-1.332073927E0,-8.694964647E-2,-1.013302878E-1
8.920729170E0,-7.780195475E-1,1.292926520E-1,-2.493976802E-1
8.930746722E0,-1.900109351E-1,3.828181326E-1,-2.536586225E-1
8.940764431E0,3.127790391E-1,5.340812206E-1,-1.609833390E-1
8.950782243E0,6.898715496E-1,4.232969582E-1,-2.463351376E-2
8.960800108E0,9.125052094E-1,1.505973190E-1,1.095858440E-1
8.970817972E0,9.093095660E-1,-6.138405204E-2,1.213034093E-1
8.980835837E0,7.111762166E-1,-2.669740319E-1,1.904104091E-2
8.990855420E0,4.033238590E-1,-4.757596850E-1,-1.141130850E-1
9.000869483E0,4.647079110E-2,-5.439345837E-1,-2.334191799E-1
9.010885420E0,-2.549901605E-1,-4.587159753E-1,-3.239639997E-1
9.020901410E0,-4.137098789E-1,-2.882786989E-1,-3.505948186E-1
9.030917452E0,-4.477973282E-1,-1.178414002E-1,-2.994636297E-1
9.040933597E0,-5.181027055E-1,-9.187635034E-3,-2.099840641E-1
9.050950577E0,-8.429988027E-1,3.768261895E-2,-1.652442664E-1
9.060967660E0,-1.429010153E0,1.324883550E-1,-2.131797522E-1
9.070986566E0,-2.052171469E0,1.825543046E-1,-4.091826379E-1
9.081003702E0,-2.415415764E0,6.218297780E-2,-6.190335155E-1
9.091020472E0,-2.404763460E0,-1.557903271E-2,-6.382077336E-1
9.101037243E0,-2.158694744E0,-7.097115368E-2,-4.784227908E-1
9.111054014E0,-1.965887547E0,-2.936048508E-1,-3.836170435E-1
9.121070785E0,-2.041519165E0,-3.617797792E-1,-4.581833482E-1
9.131087556E0,-2.379198074E0,-2.201037705E-1,-5.146406889E-1
9.141104431E0,-2.821269751E0,-3.368799388E-2,-5.231625438E-1
9.151121150E0,-3.329385757E0,9.733566642E-2,-5.338149071E-1
9.161137868E0,-3.881176472E0,-9.440627694E-2,-6.137073636E-1
9.171154587E0,-4.358400822E0,-6.525883675E-1,-6.946650743E-1
9.181171306E0,-4.521381378E0,-1.205444336E0,-6.850779653E-1
9.191188702E0,-4.274247646E0,-1.657103181E0,-6.872084737E-1
9.201205056E0,-3.802349329E0,-1.946846485E0,-7.532529235E-1
9.211221410E0,-3.277189493E0,-1.893584847E0,-7.276872993E-1
9.221237764E0,-2.729659557E0,-1.613428593E0,-6.605776548E-1
9.231254170E0,-1.994648814E0,-1.317293763E0,-4.432700872E-1
9.241270629E0,-8.451292515E-1,-9.157009125E-1,-7.363422960E-2
9.251287868E0,5.556522012E-1,-2.105166763E-1,1.809564531E-1
9.261305212E0,1.816888094E0,4.062532485E-1,2.864145339E-1
9.271324327E0,2.698900938E0,7.439321280E-1,3.418066502E-1
9.281339327E0,3.242169857E0,7.939980626E-1,3.673722446E-1
9.291354379E0,3.581979275E0,7.492582798E-1,3.577851355E-1
9.301369535E0,3.676784992E0,7.087793946E-1,2.725664973E-1
9.311384847E0,3.584109545E0,4.967980385E-1,1.894783229E-1
9.321400368E0,3.409411430E0,2.155765295E-1,1.553908736E-1
9.331416150E0,3.183582067E0,-1.877473295E-2,1.085206121E-1
9.341432347E0,2.901295185E0,-1.284937263E-1,6.697652489E-2
9.351448858E0,2.617943287E0,-7.203638554E-2,4.247616604E-2
9.361465681E0,2.425136089E0,7.177007198E-2,2.223674022E-2
9.371482816E0,2.382526875E0,2.688381970E-1,-1.398118306E-2
9.381500212E0,2.434723139E0,5.021241903E-1,-2.143781446E-2
9.391518545E0,2.571073055E0,6.224955320E-1,1.371487509E-2
9.401537087E0,2.722336054E0,8.003894687E-1,5.099803209E-2
9.411557504E0,2.795837164E0,9.985228181E-1,1.074553803E-1
9.421574275E0,2.748966932E0,1.186003804E0,1.884130985E-1
9.431591045E0,2.556159735E0,1.270157218E0,3.034582436E-1
9.441607816E0,2.237655163E0,1.295722842E0,4.387428463E-1
9.451625264E0,1.848845124E0,1.286135674E0,5.388747454E-1
9.461642764E0,1.374816418E0,1.260570168E0,5.399399996E-1
9.471661931E0,8.326127529E-1,1.186003804E0,5.101134777E-1
9.481674952E0,2.861482203E-1,9.793485999E-1,5.207657814E-1
9.491688077E0,-2.187722325E-1,6.491263509E-1,5.910711884E-1
9.501701462E0,-6.224955320E-1,2.304897904E-1,6.027887464E-1
9.511715264E0,-8.461945057E-1,-1.838858575E-1,5.346138477E-1
9.521744118E0,-7.705629468E-1,-4.416722357E-1,4.163729548E-1
9.531774170E0,-3.987966180E-1,-5.758916140E-1,2.864145339E-1
9.541778337E0,1.881467849E-1,-5.940005779E-1,2.065220475E-1
9.551782868E0,8.539174199E-1,-5.055862069E-1,1.532603949E-1
9.561788233E0,1.496252894E0,-4.139761925E-1,1.287600398E-1
9.571794847E0,2.015021324E0,-2.552564740E-1,1.458037645E-1
9.581803077E0,2.272807837E0,-7.842778414E-2,2.022611201E-1
9.591815004E0,2.208893776E0,1.612496525E-1,2.587184608E-1
9.601830681E0,1.862693071E0,2.975994647E-1,2.864145339E-1
9.611850004E0,1.319424272E0,2.826862037E-1,2.352833450E-1
9.621870941E0,6.951977015E-1,2.379464209E-1,1.734998226E-1
9.631893233E0,5.712312087E-2,1.015966013E-1,1.351514459E-1
9.641916618E0,-5.788210034E-1,-1.167761683E-1,1.308905035E-1
9.651940785E0,-1.160571337E0,-2.968005538E-1,1.213034093E-1
9.661965420E0,-1.605838776E0,-4.661726058E-1,8.295502514E-2
9.671990160E0,-1.842320561E0,-6.195661426E-1,-1.611164957E-2
9.682010681E0,-1.776276112E0,-6.504579186E-1,-1.524614692E-1
9.692027452E0,-1.533402920E0,-6.163704395E-1,-2.653761804E-1
9.702044222E0,-1.188267469E0,-4.086500108E-1,-3.569862247E-1
9.712060993E0,-8.408682942E-1,-2.041252851E-1,-4.081174135E-1
9.722080264E0,-5.234288573E-1,-4.926702939E-3,-4.134435654E-1
9.732101097E0,-2.858819067E-1,1.719019860E-1,-3.900084496E-1
9.742111358E0,-1.218360290E-1,1.697715074E-1,-3.335510790E-1
9.752121879E0,-3.235645220E-2,6.324820966E-2,-2.355496585E-1
9.762132868E0,-2.916075476E-2,-6.244928762E-2,-1.588528752E-1
9.772144535E0,-5.259587988E-2,-1.050586104E-1,-1.418091506E-1
9.782161879E0,-1.015966013E-1,-1.540593207E-1,-1.663095057E-1
9.792181618E0,-1.655105799E-1,-2.275604010E-1,-2.110492885E-1
9.802203545E0,-2.443378270E-1,-1.817553788E-1,-3.260944486E-1
9.812227347E0,-4.073184729E-1,7.177007198E-2,-4.656399786E-1
9.822245681E0,-7.236927152E-1,4.616453648E-1,-4.922707975E-1
9.832262452E0,-1.341660976E0,7.194317579E-1,-3.814865649E-1
9.842279222E0,-2.355762720E0,5.692338943E-1,-2.728328109E-1
9.852295993E0,-3.479583740E0,2.070546746E-1,-3.452686667E-1
9.862314587E0,-4.349879265E0,-1.983996481E-2,-4.858794212E-1
9.872334795E0,-4.833494663E0,-3.649754524E-1,-5.220973492E-1
9.882346410E0,-4.938952923E0,-1.008376241E0,-5.551195741E-1
9.892358181E0,-4.787689686E0,-1.388664365E0,-6.776213646E-1
9.902370316E0,-4.487294197E0,-1.436599851E0,-7.862751484E-1
9.912383025E0,-4.138962746E0,-1.252314568E0,-7.798837423E-1
9.922396514E0,-3.851350069E0,-7.101109624E-1,-6.424686909E-1
9.932412556E0,-3.623390198E0,-3.181052208E-1,-4.656399786E-1
9.942429327E0,-3.432713509E0,-1.231675670E-1,-4.379439354E-1
9.952446775E0,-3.399691105E0,-2.254299372E-1,-5.189016461E-1
9.962464847E0,-3.640433788E0,-7.260894775E-1,-4.539224207E-1
9.972483493E0,-4.205007553E0,-1.602776289E0,-1.332872808E-1
9.982502608E0,-4.957061768E0,-2.130066633E0,2.299571782E-1
9.992523910E0,-5.316045284E0,-1.960694551E0,1.969349533E-1
1.000254714E1,-4.933626652E0,-1.456839323E0,-1.492657810E-1
1.001257188E1,-4.062266350E0,-6.930672526E-1,-4.848141670E-1
1.002258146E1,-2.990641832E0,-9.440627694E-2,-4.954665005E-1
1.003259131E1,-1.981866002E0,3.764267266E-1,-2.589847744E-1
1.004260167E1,-1.218093991E0,7.865414619E-1,-4.593817517E-2
