"Time (s)","Gyroscope x (rad/s)","Gyroscope y (rad/s)","Gyroscope z (rad/s)"
4.861421800E-2,-3.941362351E-2,-4.394086078E-3,3.209014609E-2
5.861489600E-2,-7.030537724E-2,-2.263620263E-3,2.889444493E-2
6.861687500E-2,-1.043928340E-1,4.127778113E-3,1.291595027E-2
7.862072900E-2,-1.342193633E-1,9.320789250E-4,-1.997311832E-3
8.862687500E-2,-1.576544940E-1,-9.720250964E-3,-6.258244161E-3
9.863567700E-2,-1.704372764E-1,-1.185071748E-2,1.331541280E-4
1.086473960E-1,-1.683068126E-1,-1.930734888E-2,8.655018173E-3
1.186639060E-1,-1.576544940E-1,-1.398118306E-2,1.930734888E-2
1.286832290E-1,-1.459369212E-1,-6.524552125E-3,2.676397935E-2
1.387069790E-1,-1.331541240E-1,-8.655018173E-3,3.102491237E-2
1.487347390E-1,-1.331541240E-1,-3.102491237E-2,2.889444493E-2
1.587659370E-1,-1.480673850E-1,-4.593817517E-2,2.250304818E-2
1.687998430E-1,-1.629806459E-1,-3.635107726E-2,1.398118306E-2
1.788356770E-1,-1.555240154E-1,-2.356828004E-2,2.263620263E-3
1.888550000E-1,-1.235670298E-1,-2.037258074E-2,-1.051917579E-2
1.988760410E-1,-6.391397864E-2,-1.398118306E-2,-2.436720580E-2
2.088985410E-1,2.876129188E-2,3.062544856E-3,-3.608476743E-2
2.189222390E-1,1.416759938E-1,1.797580719E-2,-5.099803209E-2
2.289468230E-1,2.663082480E-1,2.862813696E-2,-7.017222792E-2
2.389719790E-1,3.994623721E-1,3.182383627E-2,-1.021292135E-1
2.489973960E-1,5.102466345E-1,4.886756465E-2,-1.319557428E-1
2.590201040E-1,6.029219031E-1,4.673709720E-2,-1.564560980E-1
2.690381250E-1,6.785534620E-1,3.501953557E-2,-1.777607650E-1
2.790544790E-1,7.584459186E-1,-2.263620263E-3,-2.033263594E-1
2.890269790E-1,8.351426721E-1,-3.741630912E-2,-2.118482143E-1
2.990030730E-1,8.916000128E-1,-6.830807030E-2,-1.937392503E-1
3.089842710E-1,9.246222377E-1,-8.748225868E-2,-1.639127284E-1
3.189717710E-1,9.342093468E-1,-1.535267085E-1,-1.181077138E-1
3.289665100E-1,9.182308912E-1,-2.099840641E-1,-7.975932211E-2
3.389690620E-1,8.447297812E-1,-2.302234918E-1,-3.501953557E-2
3.489796870E-1,7.488588095E-1,-2.621804774E-1,4.394086078E-3
3.589983850E-1,6.551182866E-1,-2.419410497E-1,2.889444493E-2
3.690247390E-1,5.912043452E-1,-1.886793971E-1,4.700340703E-2
3.790580730E-1,5.688344240E-1,-1.631138027E-1,5.978620425E-2
3.890956770E-1,5.624430180E-1,-1.279611140E-1,8.109086752E-2
3.991383850E-1,5.358121991E-1,-1.162435561E-1,1.066564545E-1
4.091849480E-1,4.772244096E-1,-1.332872808E-1,1.396786869E-1
4.192340100E-1,3.813534081E-1,-1.482005417E-1,1.758965999E-1
4.292842710E-1,2.492645234E-1,-1.663095057E-1,2.131797522E-1
4.393296870E-1,9.906667471E-2,-1.354177445E-1,2.334191799E-1
4.493466140E-1,-4.793548584E-2,-8.109086752E-2,2.163754553E-1
4.593635410E-1,-1.917419434E-1,-2.037258074E-2,1.727008969E-1
4.693804680E-1,-3.430050313E-1,-1.331541280E-4,1.300915778E-1
4.793973960E-1,-4.772244096E-1,3.182383627E-2,8.215609938E-2
4.893884370E-1,-5.677692294E-1,4.354140162E-2,5.019910634E-2
4.993805210E-1,-5.581821203E-1,3.821523488E-2,5.019910634E-2
5.093756770E-1,-4.537892640E-1,3.821523488E-2,3.102491237E-2
5.193746870E-1,-2.705691755E-1,4.673709720E-2,-2.543243766E-2
5.293780730E-1,-7.669677585E-2,4.673709720E-2,-9.680305421E-2
5.393862500E-1,4.473978654E-2,7.762885839E-2,-1.798912287E-1
5.493993750E-1,4.793548584E-2,9.893351793E-2,-2.491313666E-1
5.594173960E-1,-1.917419396E-2,1.362166703E-1,-3.045234978E-1
5.694401040E-1,-7.563154399E-2,2.374138087E-1,-3.236976862E-1
5.794670830E-1,-3.834838793E-2,3.726983964E-1,-3.258281648E-1
5.894959890E-1,1.033276021E-1,5.346138477E-1,-3.428718746E-1
5.995263020E-1,3.121132851E-1,7.391385436E-1,-3.748288751E-1
6.095573960E-1,5.400731564E-1,7.998568416E-1,-4.259600639E-1
6.195905210E-1,7.158365846E-1,6.784203053E-1,-4.643084407E-1
6.296359890E-1,7.477935553E-1,4.248948097E-1,-4.248948097E-1
6.396466660E-1,5.752258301E-1,7.869409025E-2,-3.098496497E-1
6.496586460E-1,2.300903350E-1,-3.793561161E-1,-1.149120107E-1
6.596720830E-1,-1.587197185E-1,-8.609746099E-1,6.830807030E-2
6.696870830E-1,-4.963985980E-1,-1.200783968E0,2.046578974E-1
6.797036460E-1,-7.818810344E-1,-1.310502887E0,2.770937383E-1
6.897217710E-1,-8.745563030E-1,-9.557803273E-1,2.845503688E-1
6.997402600E-1,-7.009233236E-1,-3.037245572E-1,2.749632597E-1
7.097601560E-1,-4.804200828E-1,1.937392503E-1,1.876141727E-1
7.197813020E-1,-3.142437339E-1,3.961335421E-1,-1.158440951E-2
7.298034370E-1,-2.599168718E-1,3.758940995E-1,-1.777607650E-1
7.398263540E-1,-4.314193726E-1,1.628475040E-1,-1.575213373E-1
7.498498430E-1,-7.392717004E-1,-1.769618392E-1,5.552527308E-2
7.598735930E-1,-1.059906840E0,-5.625761747E-1,3.591166735E-1
7.698970310E-1,-1.256974936E0,-8.428656459E-1,5.689675808E-1
7.799145310E-1,-1.184539080E0,-9.067795873E-1,7.117088437E-1
7.899314580E-1,-7.978595495E-1,-7.234264016E-1,8.342106342E-1
7.999219270E-1,-1.555240154E-1,-3.708342612E-1,8.810808659E-1
8.099145310E-1,5.411383510E-1,8.402025700E-2,8.267539740E-1
8.199101560E-1,1.043928385E0,4.824174047E-1,6.744256616E-1
8.299095310E-1,1.246322632E0,7.977263927E-1,4.645747542E-1
8.399132810E-1,1.188800097E0,8.808145523E-1,2.856155932E-1
8.499217180E-1,9.161003828E-1,8.083786964E-1,1.684399694E-1
8.599350520E-1,4.410064816E-1,6.432675719E-1,8.428656310E-2
8.699531770E-1,-4.900071770E-2,4.728302956E-1,4.394086078E-3
8.799759370E-1,-4.015928507E-1,2.416747361E-1,-3.715000302E-2
8.900010930E-1,-5.869433880E-1,-2.143781446E-2,-1.584534161E-2
9.000289060E-1,-6.178351641E-1,-1.982664913E-1,5.765573680E-2
9.100600000E-1,-5.059856772E-1,-1.641790420E-1,1.716356725E-1
9.200936980E-1,-2.577863932E-1,-8.748225868E-2,3.580514491E-1
9.301291660E-1,6.817491353E-2,3.395430371E-2,4.454005659E-1
9.401656250E-1,3.302222490E-1,4.780233279E-2,4.336830080E-1
9.502022390E-1,4.335498512E-1,7.549838722E-2,3.782908916E-1
9.602250000E-1,3.920057416E-1,1.255643368E-1,3.623123765E-1
9.702410930E-1,2.460688353E-1,1.458037645E-1,3.569862247E-1
9.802572390E-1,3.302222490E-2,9.999874979E-2,3.047898114E-1
9.902734370E-1,-2.737648785E-1,7.017222792E-2,2.248973250E-1
1.000289791E0,-6.178351641E-1,4.460663348E-2,1.151783243E-1
1.010306250E0,-8.798824549E-1,3.182383627E-2,1.185071748E-2
1.020322916E0,-9.906666875E-1,5.845466256E-2,-5.951989442E-2
1.030339739E0,-9.161003828E-1,2.438052148E-1,-1.106510833E-1
1.040356718E0,-6.849448085E-1,5.197005868E-1,-1.713693589E-1
1.050373906E0,-4.186365902E-1,7.220948339E-1,-2.288919389E-1
1.060391250E0,-1.629806459E-1,8.232919574E-1,-2.683055699E-1
1.070386093E0,3.941362351E-2,8.573794365E-1,-2.693707943E-1
1.080381093E0,1.960028708E-1,8.105092049E-1,-2.193048447E-1
1.090377135E0,3.153089881E-1,6.485937834E-1,-1.266295761E-1
1.100375052E0,3.824186623E-1,4.398080707E-1,-2.543243766E-2
1.110375521E0,3.440702558E-1,2.715012729E-1,3.741630912E-2
1.120380937E0,2.066552043E-1,2.022611201E-1,8.109086752E-2
1.130389843E0,4.154408723E-2,1.926740259E-1,1.002650559E-1
1.140403021E0,-3.408745676E-2,2.395442724E-1,1.119826213E-1
1.150421562E0,1.597849466E-2,3.034582436E-1,1.290263534E-1
1.160445208E0,1.565892547E-1,3.695026934E-1,1.364829838E-1
1.170473489E0,3.504616618E-1,4.312862158E-1,1.151783243E-1
1.180505781E0,5.294207931E-1,4.547213614E-1,8.535179496E-2
1.190541302E0,6.306179762E-1,3.822855055E-1,4.167724028E-2
1.200579218E0,6.444659829E-1,2.842840552E-1,-1.904104091E-2
1.210618593E0,5.890738368E-1,1.628475040E-1,-8.615072072E-2
1.220658489E0,5.006595254E-1,4.886756465E-2,-1.468690038E-1
1.230689427E0,4.346150756E-1,-2.569874749E-2,-2.011958808E-1
1.240705833E0,4.101147056E-1,-7.043853402E-2,-2.480661422E-1
1.250722239E0,4.015928507E-1,-6.511236727E-2,-2.832188308E-1
1.260738698E0,3.856143653E-1,-2.889444493E-2,-2.928059399E-1
1.270755208E0,3.696358502E-1,1.478010789E-2,-3.077192008E-1
1.280771823E0,3.632444739E-1,4.780233279E-2,-3.130453527E-1
1.290788541E0,3.589835167E-1,8.082455397E-2,-2.896102369E-1
1.300805364E0,3.430050313E-1,9.893351793E-2,-2.501966059E-1
1.310784218E0,3.398093283E-1,8.508548886E-2,-2.033263594E-1
1.320766302E0,3.621792197E-1,2.756290510E-2,-1.511299312E-1
1.330752864E0,4.026580751E-1,-1.331541280E-4,-1.021292135E-1
1.340744948E0,4.676373005E-1,-2.676397935E-2,-4.247616604E-2
1.350743385E0,5.240946412E-1,-5.019910634E-2,2.250304818E-2
1.360748646E0,5.571168661E-1,-4.167724028E-2,8.748225868E-2
1.370760937E0,5.645735264E-1,-3.422060981E-2,1.386134475E-1
1.380780156E0,5.336817503E-1,-1.398118306E-2,1.609833390E-1
1.390804166E0,4.569849670E-1,-4.394086078E-3,1.439396143E-1
1.400833177E0,3.600487709E-1,-2.463351376E-2,9.174319357E-2
1.410865833E0,2.865476906E-1,-8.748225868E-2,2.263620263E-3
1.420903125E0,2.481992990E-1,-1.407439113E-1,-8.295502514E-2
1.430944114E0,2.023942769E-1,-1.641790420E-1,-1.213034093E-1
1.440987656E0,1.406107545E-1,-1.258306503E-1,-1.106510833E-1
1.451032604E0,9.906667471E-2,-7.363422960E-2,-7.336792350E-2
1.461077760E0,6.391397864E-2,-2.889444493E-2,-1.478010789E-2
1.471102343E0,2.769605815E-2,3.182383627E-2,5.765573680E-2
1.481118437E0,7.456631400E-3,7.336792350E-2,1.364829838E-1
1.491134531E0,8.521864191E-3,8.508548886E-2,2.046578974E-1
1.501150677E0,1.278279629E-2,8.721595258E-2,2.312887162E-1
1.511125625E0,1.384802908E-2,6.697652489E-2,2.387453467E-1
1.521104062E0,-4.260932095E-3,1.371487509E-2,2.270277888E-1
1.531087396E0,-4.687025398E-2,-8.428656310E-2,1.908098608E-1
1.541076823E0,-1.107842326E-1,-1.364829838E-1,1.332872808E-1
1.551073125E0,-1.800243855E-1,-1.055912226E-1,6.085143611E-2
1.561076927E0,-2.162422985E-1,-2.356828004E-2,-9.453942999E-3
1.571088437E0,-2.173075378E-1,9.254211932E-2,-7.656362653E-2
1.581107604E0,-2.013290375E-1,2.022611201E-1,-1.415428370E-1
1.591132187E0,-1.810896099E-1,2.810883522E-1,-1.958697289E-1
1.601161718E0,-1.565892547E-1,3.205019832E-1,-2.299571782E-1
1.611195468E0,-1.352845877E-1,3.215672076E-1,-2.395442724E-1
1.621233333E0,-1.256974936E-1,3.194367588E-1,-2.299571782E-1
1.631275416E0,-9.374050796E-2,2.171743810E-1,-2.310224175E-1
1.641319479E0,-3.302222490E-2,7.869409025E-2,-2.352833450E-1
1.651365416E0,1.597849466E-2,-4.487293959E-2,-2.533923090E-1
1.661412031E0,4.687025398E-2,-1.737661362E-1,-2.800231278E-1
1.671445364E0,8.521863818E-2,-2.504629195E-1,-2.800231278E-1
1.681462812E0,1.139799356E-1,-2.685718834E-1,-2.597837150E-1
1.691479687E0,9.800143540E-2,-2.515281439E-1,-2.470009029E-1
1.701496614E0,2.876129188E-2,-2.089188248E-1,-2.512618303E-1
1.711513541E0,-5.113118514E-2,-1.460700780E-1,-2.448704392E-1
1.721504583E0,-1.310236603E-1,-1.173087880E-1,-2.288919389E-1
1.731497708E0,-2.109161317E-1,-1.141130850E-1,-2.150439173E-1
1.741493802E0,-2.918738425E-1,-1.055912226E-1,-1.990654171E-1
1.751493593E0,-3.675054014E-1,-7.576470077E-2,-1.532603949E-1
1.761497656E0,-4.282236695E-1,4.127778113E-3,-9.147688746E-2
1.771506354E0,-4.410064816E-1,5.951989442E-2,-1.904104091E-2
1.781519791E0,-4.335498512E-1,5.312849581E-2,4.806863889E-2
1.791537968E0,-4.740287066E-1,3.715000302E-2,9.706936032E-2
1.801560677E0,-5.752258301E-1,6.910699606E-2,1.194392517E-1
1.811587552E0,-6.615096927E-1,7.549838722E-2,1.535267085E-1
1.821616875E0,-6.817491055E-1,3.182383627E-2,2.089188248E-1
1.831649166E0,-6.572487950E-1,-4.380770773E-2,2.866808474E-1
1.841683698E0,-6.029219031E-1,-1.311568171E-1,3.537905216E-1
1.851719739E0,-5.496602654E-1,-2.099840641E-1,3.932041526E-1
1.861756406E0,-5.539211631E-1,-2.057231218E-1,4.027912319E-1
1.871789427E0,-6.519225836E-1,-1.045259908E-1,3.761604130E-1
1.881807760E0,-7.531197667E-1,7.975932211E-2,2.983984053E-1
1.891779427E0,-7.264889479E-1,2.555227578E-1,1.886793971E-1
1.901754739E0,-5.528559685E-1,3.822855055E-1,7.682993263E-2
1.911735156E0,-3.195699155E-1,4.291557670E-1,-1.797580719E-2
1.921720156E0,-1.139799356E-1,3.737636507E-1,-6.271559745E-2
1.931712656E0,3.515268862E-2,1.852173954E-1,-5.845466256E-2
1.941713333E0,1.214365661E-1,-1.716356725E-1,-3.288906813E-2
1.951722500E0,1.331541240E-1,-5.519238710E-1,2.676397935E-2
1.961740156E0,1.022623703E-1,-8.204957247E-1,6.404713541E-2
1.971765937E0,1.704372838E-2,-8.844097257E-1,6.524552125E-3
1.981799166E0,-8.308817446E-2,-7.223611474E-1,-1.319557428E-1
1.991838906E0,-1.736329794E-1,-3.740299344E-1,-2.672403455E-1
2.001884010E0,-2.428731322E-1,2.330197208E-2,-3.908073604E-1
2.011933125E0,-2.758953571E-1,4.003944695E-1,-5.303528905E-1
2.021983750E0,-2.535254657E-1,6.091801524E-1,-6.294195652E-1
2.032035573E0,-1.352845877E-1,5.868102312E-1,-6.539199352E-1
2.042081979E0,5.965305120E-2,3.886769116E-1,-6.283543110E-1
2.052099166E0,2.023942769E-1,4.247616604E-2,-5.953320861E-1
2.062116354E0,1.778939217E-1,-2.824199200E-1,-5.282224417E-1
2.072106614E0,-1.065233024E-3,-4.485962689E-1,-4.366123974E-1
2.082097239E0,-2.524602413E-1,-4.209001958E-1,-3.599156141E-1
2.092089271E0,-5.187684894E-1,-3.228987455E-1,-3.268933892E-1
2.102083646E0,-7.627068162E-1,-2.802894413E-1,-2.363485843E-1
2.112081198E0,-9.480574131E-1,-3.037245572E-1,-1.138467789E-1
2.122083281E0,-1.020493269E0,-3.772256374E-1,-3.928046674E-2
2.132091406E0,-9.842753410E-1,-4.166392684E-1,4.700340703E-2
2.142104583E0,-8.511211872E-1,-4.400743842E-1,1.577876359E-1
2.152123854E0,-5.358121991E-1,-3.442034125E-1,2.227668613E-1
2.162148906E0,-8.628387749E-2,-9.493889660E-2,2.685718834E-1
2.172179218E0,3.270265460E-1,2.246310115E-1,2.994636297E-1
2.182214062E0,5.762910843E-1,5.697665215E-1,2.898765504E-1
2.192252552E0,6.167699099E-1,7.774869800E-1,2.312887162E-1
2.202293750E0,4.239627421E-1,7.370080948E-1,1.652442664E-1
2.212336510E0,6.817491353E-2,4.909392595E-1,9.706936032E-2
2.222365000E0,-2.940043211E-1,1.862826198E-1,1.398118306E-2
2.232394114E0,-5.283555984E-1,-1.291595027E-2,-9.467258304E-2
2.242423333E0,-6.274222732E-1,-8.854749799E-2,-2.033263594E-1
2.252443385E0,-7.083799839E-1,3.062544856E-3,-2.938711643E-1
2.262461666E0,-7.861419916E-1,2.374138087E-1,-3.439370990E-1
2.272477760E0,-7.552502155E-1,5.740274191E-1,-3.247629106E-1
2.282493854E0,-5.613778234E-1,9.330109954E-1,-2.267614752E-1
2.292510000E0,-2.684387267E-1,1.172688365E0,-9.467258304E-2
2.302526250E0,-4.047885537E-2,1.282407403E0,4.593817517E-2
2.312542708E0,-2.450035885E-2,1.234471917E0,1.982664913E-1
2.322559323E0,-2.311555594E-1,1.033142924E0,3.676385581E-1
2.332576146E0,-4.527240396E-1,7.732260227E-1,5.252930522E-1
2.342593177E0,-5.262250900E-1,5.069177747E-1,6.712299585E-1
2.352610416E0,-4.942681193E-1,3.332847953E-1,7.692313790E-1
2.362627812E0,-3.898752928E-1,3.354152441E-1,7.969274521E-1
2.372645364E0,-2.418078929E-1,3.769593239E-1,7.798837423E-1
2.382663073E0,-8.734910935E-2,3.588503897E-1,7.159697413E-1
2.392665208E0,8.521864191E-3,2.991973162E-1,6.243597269E-1
2.402668698E0,3.515268862E-2,1.713693589E-1,5.316844583E-1
2.412674010E0,-2.130466048E-3,9.320789250E-4,4.507267177E-1
2.422681562E0,-7.776200771E-2,-1.556571722E-1,3.729647100E-1
2.432691666E0,-1.789591461E-1,-2.802894413E-1,2.920069993E-1
2.442704479E0,-3.153089881E-1,-3.228987455E-1,2.057231218E-1
2.452720104E0,-4.548544884E-1,-3.548557460E-1,1.268958896E-1
2.462738541E0,-5.688344240E-1,-3.814865649E-1,9.067796171E-2
2.472759583E0,-6.231613159E-1,-3.303554058E-1,8.961272985E-2
2.482782968E0,-5.347470045E-1,-1.982664913E-1,1.173087880E-1
2.492808385E0,-2.769605815E-1,-5.019910634E-2,1.663095057E-1
2.502835364E0,8.947957307E-2,8.402025700E-2,2.206363827E-1
2.512863437E0,4.420717061E-1,2.416747361E-1,2.973331809E-1
2.522892135E0,6.647053957E-1,3.556546867E-1,3.537905216E-1
2.532920989E0,7.595111728E-1,4.014596939E-1,3.804213405E-1
2.542942708E0,7.957290411E-1,3.971987665E-1,3.963998258E-1
2.552960781E0,8.170337081E-1,3.567199111E-1,3.995955288E-1
2.562977187E0,8.383383751E-1,2.832188308E-1,3.868127465E-1
2.572993593E0,8.308817744E-1,1.830869317E-1,3.548557460E-1
2.583010052E0,7.595111728E-1,8.188978583E-2,3.111811876E-1
2.592984114E0,6.412702799E-1,-1.331541280E-4,2.579195499E-1
2.602959896E0,5.304860473E-1,-7.469946891E-2,2.035926580E-1
2.612938958E0,4.633763731E-1,-1.279611140E-1,1.450048387E-1
2.622923437E0,4.548544884E-1,-1.641790420E-1,7.789516449E-2
2.632913802E0,4.868114889E-1,-1.545919478E-1,1.717688330E-2
2.642910781E0,5.304860473E-1,-1.258306503E-1,-5.206326395E-2
2.652916718E0,6.093133092E-1,-7.363422960E-2,-1.053249165E-1
2.662931718E0,7.073147297E-1,-1.185071748E-2,-1.500647068E-1
2.672955521E0,8.074466586E-1,4.673709720E-2,-1.841521561E-1
2.682987500E0,8.979914188E-1,1.149120107E-1,-2.001306564E-1
2.693026718E0,9.512531161E-1,1.937392503E-1,-2.182396203E-1
2.703072031E0,9.459269047E-1,2.544575334E-1,-2.235657871E-1
2.713122031E0,8.969262242E-1,2.725664973E-1,-2.193048447E-1
2.723175208E0,8.095771074E-1,2.800231278E-1,-2.107829899E-1
2.733225104E0,6.955971718E-1,3.162410557E-1,-2.097177505E-1
2.743275468E0,6.071828008E-1,3.300890923E-1,-2.225005478E-1
2.753303906E0,5.635082722E-1,2.842840552E-1,-2.310224175E-1
2.763322291E0,5.496602654E-1,1.841521561E-1,-2.171743810E-1
2.773338385E0,5.379426479E-1,9.147688746E-2,-1.820216924E-1
2.783354531E0,5.134423375E-1,-1.717688330E-2,-1.489994675E-1
2.793370729E0,4.601806700E-1,-9.493889660E-2,-1.138467789E-1
2.803387031E0,3.717663288E-1,-1.013302878E-1,-7.230269164E-2
2.813403437E0,2.812215090E-1,-8.428656310E-2,-3.715000302E-2
2.823397708E0,1.960028708E-1,-1.247654185E-1,5.459319334E-3
2.833392864E0,1.086537689E-1,-2.099840641E-1,7.896039635E-2
2.843390833E0,2.236989327E-2,-2.738980353E-1,1.567224115E-1
2.853392291E0,-2.663082629E-2,-3.282249272E-1,2.046578974E-1
2.863397760E0,-1.171756350E-2,-3.729647100E-1,2.131797522E-1
2.873407500E0,5.326165259E-2,-3.665733039E-1,1.876141727E-1
2.883421666E0,1.395455301E-1,-3.729647100E-1,1.492657810E-1
2.893438489E0,1.874810159E-1,-3.527252972E-1,1.162435561E-1
2.903459583E0,1.501978636E-1,-2.760285139E-1,7.469946891E-2
2.913484583E0,2.769605815E-2,-1.758965999E-1,1.291595027E-2
2.923513073E0,-1.565892547E-1,-1.258306503E-1,-5.525896326E-2
2.933543333E0,-3.973319232E-1,-1.237001866E-1,-1.138467789E-1
2.943574791E0,-6.295527220E-1,-1.087869257E-1,-1.703041345E-1
2.953607916E0,-7.616416216E-1,-1.066564545E-1,-2.075872868E-1
2.963641979E0,-7.786853313E-1,-1.588528752E-1,-2.288919389E-1
2.973676302E0,-7.467283607E-1,-2.419410497E-1,-2.416747361E-1
2.983699843E0,-6.945319176E-1,-3.165073693E-1,-2.544575334E-1
2.993717083E0,-6.359441280E-1,-3.761604130E-1,-2.810883522E-1
3.003734323E0,-5.667039752E-1,-4.230306745E-1,-3.098496497E-1
3.013751510E0,-4.910724163E-1,-4.390091598E-1,-3.215672076E-1
3.023768698E0,-4.122451842E-1,-4.209001958E-1,-3.130453527E-1
3.033785885E0,-3.334179223E-1,-3.857475221E-1,-3.045234978E-1
3.043776406E0,-2.801562846E-1,-3.420729637E-1,-2.885449827E-1
3.053769062E0,-2.695039511E-1,-2.717675865E-1,-2.629793882E-1
3.063764739E0,-2.908086181E-1,-2.153102309E-1,-2.342181057E-1
3.073763073E0,-3.312874734E-1,-1.727008969E-1,-2.001306564E-1
3.083764010E0,-3.728315532E-1,-1.183740199E-1,-1.724345982E-1
3.093768125E0,-4.133104086E-1,-1.045259908E-1,-1.362166703E-1
3.103775781E0,-4.484631121E-1,-5.659050494E-2,-9.041165560E-2
3.113787239E0,-4.580501914E-1,1.997311832E-3,-3.288906813E-2
3.123803281E0,-4.271584451E-1,3.182383627E-2,4.061200842E-2
3.133824843E0,-3.781577349E-1,4.460663348E-2,1.258306503E-1
3.143849739E0,-3.408745527E-1,1.264964230E-2,2.099840641E-1
3.153879323E0,-3.259612918E-1,-6.404713541E-2,2.717675865E-1
3.163912916E0,-3.568530679E-1,-1.109173894E-1,2.962679267E-1
3.173949687E0,-4.154408872E-1,-9.813459218E-2,2.877460718E-1
3.183988802E0,-4.484631121E-1,-7.256899774E-2,2.579195499E-1
3.194029271E0,-4.516588151E-1,-4.487293959E-2,2.206363827E-1
3.204070052E0,-4.324845970E-1,-4.061200842E-2,1.812227666E-1
3.214095781E0,-4.388760030E-1,-5.339480564E-2,1.460700780E-1
3.224086302E0,-4.612458944E-1,-8.535179496E-2,1.151783243E-1
3.234078958E0,-5.113118291E-1,-6.830807030E-2,7.789516449E-2
3.244072864E0,-5.837476850E-1,-4.061200842E-2,5.232957378E-2
3.254070677E0,-6.210308671E-1,-7.256899774E-2,3.102491237E-2
3.264071927E0,-5.752258301E-1,-1.503310055E-1,2.569874749E-2
3.274078177E0,-4.612458944E-1,-1.780270636E-1,7.589785382E-3
3.284089739E0,-3.493964374E-1,-9.493889660E-2,-4.034570232E-2
3.294106562E0,-2.279598713E-1,3.501953557E-2,-1.127815470E-1
3.304128437E0,-1.150451675E-1,1.553908736E-1,-1.862826198E-1
3.314155000E0,-4.047885537E-2,2.938711643E-1,-2.438052148E-1
3.324184635E0,-3.408745676E-2,3.833507299E-1,-2.629793882E-1
3.334217760E0,-3.515268862E-2,4.408733249E-1,-2.448704392E-1
3.344251823E0,7.456631400E-3,4.302209914E-1,-2.225005478E-1
3.354287916E0,1.054580659E-1,3.311543167E-1,-1.969349533E-1
3.364325208E0,2.311555594E-1,2.278267145E-1,-1.553908736E-1
3.374362812E0,2.780258060E-1,1.852173954E-1,-1.308905035E-1
3.384361823E0,2.162422985E-1,1.489994675E-1,-1.596518010E-1
3.394360937E0,1.054580659E-1,7.443315536E-2,-2.129134536E-1
3.404362552E0,2.769605815E-2,-1.717688330E-2,-2.736317217E-1
3.414367187E0,-2.982652560E-2,-1.418091506E-1,-2.800231278E-1
3.424374166E0,-1.896114796E-1,-2.728328109E-1,-2.523270845E-1
3.434384896E0,-4.292888939E-1,-4.177044928E-1,-2.544575334E-1
3.444397656E0,-6.710968018E-1,-5.231625438E-1,-2.789579034E-1
3.454414323E0,-7.488588095E-1,-5.508586168E-1,-3.066539466E-1
3.464434791E0,-5.688344240E-1,-4.177044928E-1,-3.215672076E-1
3.474458750E0,-1.928071827E-1,-1.002650559E-1,-3.300890923E-1
3.484485833E0,2.396774292E-1,1.969349533E-1,-3.130453527E-1
3.494515468E0,5.134423375E-1,3.279586136E-1,-2.384790480E-1
3.504545989E0,5.049204826E-1,3.055887222E-1,-1.351514459E-1
3.514577916E0,2.215684652E-1,2.001306564E-1,-2.223674022E-2
3.524602812E0,-1.991985738E-1,6.058513001E-2,9.919982404E-2
3.534628437E0,-5.091813803E-1,-1.205044836E-1,1.972012669E-1
3.544637239E0,-5.187684894E-1,-2.366148829E-1,2.621804774E-1
3.554647448E0,-2.929390669E-1,-2.557890713E-1,2.983984053E-1
3.564658177E0,2.023942769E-2,-1.673747450E-1,2.696371078E-1
3.574670781E0,3.280917704E-1,-4.913387448E-2,2.025274336E-1
3.584683541E0,5.560516119E-1,1.159772426E-1,1.663095057E-1
3.594696666E0,6.604444981E-1,1.703041345E-1,1.673747450E-1
3.604710312E0,6.220960617E-1,1.404775977E-1,1.758965999E-1
3.614724583E0,4.644415975E-1,1.010639817E-1,1.950708032E-1
3.624740260E0,2.418078929E-1,2.543243766E-2,1.790923029E-1
3.634758489E0,-2.663082629E-2,-8.748225868E-2,1.556571722E-1
3.644777291E0,-3.323526978E-1,-1.567224115E-1,1.386134475E-1
3.654798385E0,-6.412702799E-1,-1.833532304E-1,1.173087880E-1
3.664820416E0,-9.246222377E-1,-1.918751001E-1,6.085143611E-2
3.674844271E0,-1.170691133E0,-1.609833390E-1,-1.584534161E-2
3.684868489E0,-1.379476786E0,-4.167724028E-2,-9.786828607E-2
3.694893854E0,-1.517957091E0,3.258281648E-1,-1.255643368E-1
3.704912812E0,-1.481739163E0,7.838783264E-1,-1.031944528E-1
3.714932760E0,-1.275083899E0,1.004381537E0,-7.975932211E-2
3.724947239E0,-1.021558523E0,1.037403822E0,1.291595027E-2
3.734962864E0,-7.808157802E-1,8.786841035E-1,1.396786869E-1
3.744978593E0,-6.071828008E-1,6.091801524E-1,2.643109560E-1
3.754995573E0,-5.794867873E-1,3.535242081E-1,3.420729637E-1
3.765012656E0,-6.593792439E-1,1.404775977E-1,3.676385581E-1
3.775030937E0,-7.616416216E-1,-2.037258074E-2,3.559209704E-1
3.785049271E0,-8.734911084E-1,-8.748225868E-2,3.250292242E-1
3.795068646E0,-9.821448326E-1,-1.045259908E-1,2.813546658E-1
3.805084739E0,-1.039667487E0,-1.504641678E-2,2.493976802E-1
3.815101927E0,-9.864057899E-1,1.117163152E-1,2.174406946E-1
3.825119114E0,-8.010552526E-1,1.649779677E-1,1.790923029E-1
3.835137396E0,-5.730953813E-1,1.639127284E-1,1.428743750E-1
3.845153906E0,-3.792229593E-1,1.170424819E-1,9.813459218E-2
3.855171562E0,-2.471340597E-1,4.460663348E-2,2.569874749E-2
3.865188073E0,-1.768286824E-1,-2.676397935E-2,-5.951989442E-2
3.875205677E0,-1.533935517E-1,-9.706936032E-2,-1.276948154E-1
3.885222552E0,-1.874810159E-1,-1.109173894E-1,-1.916087866E-1
3.895248541E0,-2.428731322E-1,-4.700340703E-2,-2.544575334E-1
3.905257239E0,-2.748301327E-1,7.336792350E-2,-2.917406857E-1
3.915267396E0,-2.812215090E-1,2.225005478E-1,-3.066539466E-1
3.925278073E0,-2.279598713E-1,3.844159544E-1,-2.874797583E-1
3.935290625E0,-1.214365661E-1,4.366123974E-1,-2.225005478E-1
3.945304062E0,-2.236989327E-2,4.227643609E-1,-1.458037645E-1
3.955318646E0,7.350108027E-2,3.929378390E-1,-6.910699606E-2
3.965334323E0,1.991985738E-1,3.332847953E-1,1.078548469E-2
3.975352187E0,3.557878435E-1,2.171743810E-1,9.174319357E-2
3.985370989E0,4.857462645E-1,7.123745978E-2,1.609833390E-1
3.995391771E0,5.528559685E-1,-9.067796171E-2,2.153102309E-1
4.005413229E0,5.539211631E-1,-2.462019771E-1,2.600499988E-1
4.015436198E0,5.272903442E-1,-3.612471521E-1,2.877460718E-1
4.025459323E0,5.294207931E-1,-4.177044928E-1,2.941374779E-1
4.035483437E0,5.784215331E-1,-4.038564563E-1,2.941374779E-1
4.045498333E0,6.615096927E-1,-3.495295942E-1,2.866808474E-1
4.055521250E0,7.605763674E-1,-2.877460718E-1,2.653761804E-1
4.065532812E0,8.894695640E-1,-2.344844192E-1,2.334191799E-1
4.075544583E0,1.029015064E0,-1.631138027E-1,1.950708032E-1
4.085549531E0,1.158973575E0,-8.215609938E-2,1.386134475E-1
4.095554948E0,1.260170698E0,-1.198387123E-3,6.085143611E-2
4.105561302E0,1.334736943E0,7.123745978E-2,-1.051917579E-2
4.115584843E0,1.378411531E0,1.074553803E-1,-5.312849581E-2
4.125609479E0,1.393324852E0,1.042596847E-1,-7.017222792E-2
4.135635937E0,1.390129089E0,9.360735118E-2,-7.656362653E-2
4.145652916E0,1.368824482E0,8.295502514E-2,-6.804175675E-2
4.155669896E0,1.317693233E0,7.017222792E-2,-4.354140162E-2
4.165687552E0,1.246322632E0,7.762885839E-2,-1.691057347E-2
4.175706979E0,1.166430116E0,7.975932211E-2,-1.997311832E-3
4.185726875E0,1.086537719E0,8.615072072E-2,1.185071748E-2
4.195748229E0,9.938623905E-1,1.159772426E-1,1.717688330E-2
4.205769739E0,8.979914188E-1,1.511299312E-1,3.328853287E-3
4.215792291E0,8.117075562E-1,1.703041345E-1,-2.436720580E-2
4.225808125E0,7.637720704E-1,1.692388952E-1,-5.845466256E-2
4.235825052E0,7.541849613E-1,1.063901484E-1,-8.721595258E-2
4.245841979E0,7.541849613E-1,1.997311832E-3,-1.074553803E-1
4.255858906E0,7.435326576E-1,-1.098521575E-1,-1.095858440E-1
4.265875833E0,7.126408815E-1,-2.153102309E-1,-9.893351793E-2
4.275893906E0,6.370093226E-1,-2.983984053E-1,-8.402025700E-2
4.285911458E0,5.315513015E-1,-3.463338912E-1,-5.525896326E-2
4.295930052E0,4.303541481E-1,-3.601819277E-1,-5.193010904E-3
4.305945937E0,3.760272563E-1,-3.079854846E-1,6.617759913E-2
4.315962968E0,3.856143653E-1,-2.057231218E-1,1.268958896E-1
4.325980000E0,4.101147056E-1,-1.173087880E-1,1.450048387E-1
4.335998177E0,3.877448142E-1,-5.552527308E-2,1.183740199E-1
4.346015052E0,3.291569948E-1,-3.209014609E-2,6.830807030E-2
4.356031927E0,2.663082480E-1,-8.002562821E-2,8.655018173E-3
4.366048802E0,2.002638131E-1,-1.535267085E-1,-4.993279651E-2
4.376066771E0,1.278279573E-1,-2.504629195E-1,-1.074553803E-1
4.386084010E0,3.941362351E-2,-3.324858546E-1,-1.532603949E-1
4.396086250E0,-5.645735189E-2,-3.857475221E-1,-1.734998226E-1
4.406089635E0,-1.715025157E-1,-4.251611233E-1,-1.788259894E-1
4.416095781E0,-3.280917704E-1,-4.283568263E-1,-1.969349533E-1
4.426103958E0,-4.953333437E-1,-4.400743842E-1,-2.118482143E-1
4.436115521E0,-6.455312371E-1,-4.358134568E-1,-2.150439173E-1
4.446129479E0,-7.232932448E-1,-4.326177537E-1,-2.022611201E-1
4.456146927E0,-7.062494755E-1,-4.145087898E-1,-1.788259894E-1
4.466165937E0,-6.167699099E-1,-3.942693770E-1,-1.511299312E-1
4.476188177E0,-4.836157858E-1,-3.814865649E-1,-1.340862066E-1
4.486212239E0,-3.376788795E-1,-3.484643400E-1,-1.213034093E-1
4.496238906E0,-1.991985738E-1,-2.781589627E-1,-1.191729456E-1
4.506266562E0,-9.054480493E-2,-2.003969699E-1,-1.223686412E-1
4.516295833E0,-3.621792421E-2,-1.077216864E-1,-1.127815470E-1
4.526307448E0,-2.130465955E-2,-4.274247587E-2,-9.786828607E-2
4.536321041E0,-4.154408723E-2,-3.741630912E-2,-6.484606117E-2
4.546335625E0,-1.171756312E-1,-1.398118306E-2,-4.993279651E-2
4.556352343E0,-2.279598713E-1,-5.459319334E-3,-6.271559745E-2
4.566369323E0,-3.398093283E-1,-1.930734888E-2,-6.804175675E-2
4.576388333E0,-4.101147056E-1,-8.002562821E-2,-5.738943070E-2
4.586407448E0,-4.335498512E-1,-1.268958896E-1,-4.460663348E-2
4.596426614E0,-3.930709958E-1,-1.237001866E-1,-4.780233279E-2
4.606445260E0,-2.726996541E-1,-1.002650559E-1,-4.780233279E-2
4.616467916E0,-1.235670298E-1,-6.511236727E-2,-2.862813696E-2
4.626490833E0,-1.597849466E-2,-2.356828004E-2,-1.478010789E-2
4.636514843E0,1.065232977E-2,1.158440951E-2,-1.904104091E-2
4.646514166E0,-5.326165259E-2,4.993279651E-2,-3.608476743E-2
4.656515989E0,-2.055899799E-1,8.828118443E-2,-7.230269164E-2
4.666519010E0,-4.303541481E-1,9.467258304E-2,-1.340862066E-1
4.676525573E0,-6.316831708E-1,9.360735118E-2,-2.054568231E-1
4.686534843E0,-6.828143597E-1,1.415428370E-1,-2.278267145E-1
4.696548125E0,-5.517907143E-1,1.479342431E-1,-1.905435622E-1
4.706564323E0,-3.067871034E-1,6.591129303E-2,-9.999874979E-2
4.716584427E0,-1.310236603E-1,-6.617759913E-2,-9.453942999E-3
4.726607135E0,-9.693620354E-2,-2.110492885E-1,1.185071748E-2
4.736633177E0,-1.512630880E-1,-3.218335211E-1,-4.127778113E-3
4.746660989E0,-2.130466104E-1,-3.527252972E-1,-2.223674022E-2
4.756691146E0,-2.236989290E-1,-2.632457018E-1,-6.378082931E-2
4.766720885E0,-1.299584359E-1,-3.315537795E-2,-1.266295761E-1
4.776751927E0,7.137060910E-2,2.416747361E-1,-1.937392503E-1
4.786773021E0,2.929390669E-1,5.154396296E-1,-2.544575334E-1
4.796795000E0,4.516588151E-1,6.869421601E-1,-3.151758313E-1
4.806807500E0,5.411383510E-1,7.178338766E-1,-3.396761715E-1
4.816821250E0,4.793548584E-1,5.175700784E-1,-3.513937294E-1
4.826835260E0,2.705691755E-1,1.937392503E-1,-3.567199111E-1
4.836850781E0,-6.284874678E-2,-9.493889660E-2,-3.556546867E-1
4.846866666E0,-4.260932207E-1,-3.463338912E-1,-3.407414258E-1
4.856884062E0,-7.712287307E-1,-5.359453559E-1,-3.354152441E-1
4.866893177E0,-1.071624398E0,-4.901403487E-1,-2.949363887E-1
4.876904427E0,-1.162169218E0,-1.684399694E-1,-2.054568231E-1
4.886916823E0,-9.714925289E-1,3.119801283E-1,-1.074553803E-1
4.896931614E0,-5.986609459E-1,7.764217257E-1,-3.075860441E-2
4.906947708E0,-1.555240154E-1,9.244890809E-1,8.655018173E-3
4.916966198E0,2.098509073E-1,6.390066743E-1,6.191666797E-2
4.926986198E0,3.653749228E-1,5.951989442E-2,1.631138027E-1
4.937008229E0,2.705691755E-1,-5.210320950E-1,3.090507388E-1
4.947031406E0,-6.391398143E-3,-9.706935883E-1,4.816184938E-1
4.957056093E0,-3.153089881E-1,-1.175218344E0,6.488600373E-1
4.967080885E0,-5.187684894E-1,-1.095325828E0,7.766880393E-1
4.977106510E0,-4.559197426E-1,-8.609746099E-1,8.587109447E-1
4.987103802E0,-1.278279573E-1,-3.569862247E-1,8.619066477E-1
4.997103489E0,3.962666988E-1,3.524589837E-1,7.383396626E-1
5.007104531E0,9.832100868E-1,1.098122120E0,5.295539498E-1
5.017109166E0,1.477478147E0,1.527410984E0,2.707023323E-1
5.027116093E0,1.785330534E0,1.779871225E0,7.256899774E-2
5.037127291E0,1.776808739E0,1.819284797E0,-5.206326395E-2
5.047141041E0,1.611697555E0,1.531671882E0,-1.660431921E-1
5.057159166E0,1.342193604E0,1.146057606E0,-1.990654171E-1
5.067179791E0,1.004514694E0,6.507242322E-1,-1.713693589E-1
5.077203281E0,6.327484250E-1,9.786828607E-2,-1.085206121E-1
5.087228541E0,2.876129150E-1,-4.059869349E-1,-4.460663348E-2
5.097255208E0,1.171756350E-2,-7.138392925E-1,8.655018173E-3
5.107282864E0,-1.896114796E-1,-8.503222466E-1,6.191666797E-2
5.117312812E0,-2.876129150E-1,-9.334104657E-1,1.077216864E-1
5.127342968E0,-3.057218790E-1,-8.748226166E-1,1.322220564E-1
5.137374323E0,-2.886781394E-1,-7.436658144E-1,1.556571722E-1
5.147375677E0,-2.364817262E-1,-5.700328350E-1,1.876141727E-1
5.157379427E0,-1.651111245E-1,-3.718994856E-1,2.344844192E-1
5.167384583E0,-1.278279573E-1,-2.398105860E-1,2.653761804E-1
5.177393021E0,-1.374150664E-1,-1.993317306E-1,2.909417748E-1
5.187403281E0,-1.832200736E-1,-1.822880059E-1,3.388772607E-1
5.197417239E0,-2.428731322E-1,-2.046578974E-1,3.761604130E-1
5.207433177E0,-2.833519876E-1,-2.515281439E-1,3.878779709E-1
5.217452760E0,-2.940043211E-1,-1.940055639E-1,3.878779709E-1
5.227480208E0,-2.535254657E-1,-1.173087880E-1,3.718994856E-1
5.237510364E0,-1.342193633E-1,3.608476743E-2,3.260944486E-1
5.247552552E0,3.621792421E-2,1.660431921E-1,2.685718834E-1
5.257595312E0,2.087856680E-1,2.406095117E-1,1.993317306E-1
5.267582448E0,3.153089881E-1,3.173062801E-1,1.162435561E-1
5.277572552E0,3.217003644E-1,3.066539466E-1,2.356828004E-2
5.287578958E0,2.641777992E-1,2.139786780E-1,-8.615072072E-2
5.297589062E0,2.002638131E-1,7.443315536E-2,-1.745650619E-1
5.307614739E0,1.512630880E-1,-5.126433820E-2,-2.278267145E-1
5.317643281E0,9.161003679E-2,-1.545919478E-1,-2.640446424E-1
5.327684166E0,1.491326280E-2,-2.025274336E-1,-2.683055699E-1
5.337725989E0,-3.089175746E-2,-1.748313755E-1,-2.310224175E-1
5.347777604E0,3.195699072E-3,-1.034607589E-1,-1.607170254E-1
5.357782187E0,1.054580659E-1,1.051917579E-2,-6.804175675E-2
5.367754791E0,2.460688353E-1,1.532603949E-1,2.782921307E-2
5.377730937E0,4.047885537E-1,2.693707943E-1,1.066564545E-1
5.387710364E0,5.315513015E-1,3.748288751E-1,1.609833390E-1
5.397696198E0,6.050523520E-1,4.270252883E-1,1.865489334E-1
5.407687968E0,6.295527220E-1,4.206338823E-1,2.099840641E-1
5.417687968E0,6.018566489E-1,3.790898025E-1,2.280930281E-1
5.427699531E0,5.368774533E-1,3.087844253E-1,2.217016220E-1
5.437719427E0,4.442021847E-1,2.214353085E-1,1.993317306E-1
5.447745521E0,3.728315532E-1,1.149120107E-1,1.822880059E-1
5.457778906E0,3.408745527E-1,2.117150649E-2,1.801575422E-1
5.467816979E0,3.366136253E-1,-3.422060981E-2,1.801575422E-1
5.477860416E0,3.366136253E-1,-8.748225868E-2,1.897446364E-1
5.487906250E0,3.355484009E-1,-1.194392517E-1,2.014621943E-1
5.497954896E0,3.696358502E-1,-1.247654185E-1,2.003969699E-1
5.507998541E0,4.324845970E-1,-1.194392517E-1,1.886793971E-1
5.518042812E0,4.900071919E-1,-1.098521575E-1,1.631138027E-1
5.528032864E0,5.102466345E-1,-1.205044836E-1,1.354177445E-1
5.538025677E0,5.177032351E-1,-1.503310055E-1,1.066564545E-1
5.548020416E0,5.070509315E-1,-1.982664913E-1,6.511236727E-2
5.558019583E0,4.868114889E-1,-2.440715134E-1,2.463351376E-2
5.568022031E0,4.665720761E-1,-2.493976802E-1,-8.388710208E-3
5.578028125E0,4.601806700E-1,-2.462019771E-1,-3.608476743E-2
5.588038177E0,4.612458944E-1,-2.462019771E-1,-5.419373140E-2
5.598052343E0,4.623111188E-1,-2.248973250E-1,-6.484606117E-2
5.608070573E0,4.676373005E-1,-1.897446364E-1,-6.378082931E-2
5.618094479E0,4.878767133E-1,-1.268958896E-1,-5.206326395E-2
5.628121875E0,5.177032351E-1,-7.576470077E-2,-4.034570232E-2
5.638153906E0,5.326164961E-1,-3.635107726E-2,-2.649767138E-2
5.648188073E0,5.091813803E-1,-2.143781446E-2,-1.797580719E-2
5.658225260E0,4.399412274E-1,-4.593817517E-2,-2.223674022E-2
5.668262916E0,3.334179223E-1,-1.151783243E-1,-3.182383627E-2
5.678300781E0,2.279598713E-1,-2.376801223E-1,-3.608476743E-2
5.688309427E0,1.501978636E-1,-3.324858546E-1,-2.436720580E-2
5.698320052E0,1.033276021E-1,-3.399424851E-1,1.198387123E-3
5.708331146E0,7.882724702E-2,-2.856155932E-1,4.274247587E-2
5.718344635E0,5.752258375E-2,-2.003969699E-1,9.067796171E-2
5.728358854E0,2.663082629E-2,-1.077216864E-1,1.258306503E-1
5.738375625E0,-2.876129188E-2,-5.339480564E-2,1.599181145E-1
5.748393177E0,-9.480573982E-2,-2.995967865E-2,1.950708032E-1
5.758413177E0,-1.683068126E-1,5.193010904E-3,2.057231218E-1
5.768433698E0,-2.492645234E-1,5.419373140E-2,1.695052087E-1
5.778455208E0,-3.185046613E-1,6.910699606E-2,9.706936032E-2
5.788476875E0,-4.015928507E-1,4.780233279E-2,3.209014609E-2
5.798500208E0,-5.091813803E-1,4.886756465E-2,-1.051917579E-2
5.808532135E0,-5.986609459E-1,6.910699606E-2,-3.715000302E-2
5.818564479E0,-6.551182866E-1,4.780233279E-2,-5.738943070E-2
5.828550677E0,-7.051842809E-1,1.051917579E-2,-9.041165560E-2
5.838537968E0,-7.680330276E-1,-1.398118306E-2,-1.415428370E-1
5.848527604E0,-8.532516360E-1,-5.339480564E-2,-2.086525112E-1
5.858522343E0,-9.501878619E-1,-9.813459218E-2,-2.896102369E-1
5.868524896E0,-1.040732622E0,-1.183740199E-1,-3.631113172E-1
5.878531666E0,-1.103581429E0,-1.332872808E-1,-4.259600639E-1
5.888542916E0,-1.096124768E0,-1.418091506E-1,-4.621779919E-1
5.898560468E0,-9.832100868E-1,-1.482005417E-1,-4.643084407E-1
5.908584062E0,-7.541849613E-1,-1.524614692E-1,-4.387428463E-1
5.918613229E0,-4.484631121E-1,-1.790923029E-1,-4.046553969E-1
5.928650208E0,-1.523283273E-1,-1.716356725E-1,-3.833507299E-1
5.938690989E0,6.924014539E-2,-1.609833390E-1,-3.716331720E-1
5.948734427E0,1.683068126E-1,-1.066564545E-1,-3.673722446E-1
5.958779375E0,1.246322617E-1,1.051917579E-2,-3.609808385E-1
5.968824635E0,-3.728315607E-2,1.223686412E-1,-3.620460629E-1
5.978850833E0,-2.290250957E-1,2.022611201E-1,-3.695026934E-1
5.988867812E0,-3.824186623E-1,2.331528813E-1,-3.577851355E-1
5.998884791E0,-4.505935609E-1,2.342181057E-1,-3.162410557E-1
6.008901771E0,-4.154408872E-1,1.213034093E-1,-2.299571782E-1
6.018918750E0,-3.121132851E-1,3.715000302E-2,-1.063901484E-1
6.028935729E0,-1.704372764E-1,-5.552527308E-2,1.930734888E-2
6.038952760E0,-1.810896210E-2,-1.098521575E-1,1.237001866E-1
6.048969843E0,9.267527610E-2,-9.174319357E-2,1.950708032E-1
6.058986979E0,9.906667471E-2,-5.019910634E-2,2.206363827E-1
6.069004166E0,-4.260932095E-3,1.051917579E-2,1.982664913E-1
6.079021406E0,-1.470021605E-1,6.165036187E-2,1.311568171E-1
6.088995781E0,-2.322207987E-1,1.149120107E-1,6.617759913E-2
6.098971823E0,-2.183727771E-1,1.511299312E-1,5.339480564E-2
6.108951146E0,-1.395455301E-1,1.330209672E-1,6.617759913E-2
6.118936979E0,-3.941362351E-2,1.234338731E-1,8.002562821E-2
6.128928489E0,3.728315607E-2,1.031944528E-1,8.535179496E-2
6.138928229E0,7.350108027E-2,1.904104091E-2,6.404713541E-2
6.148936562E0,7.989247888E-2,-1.034607589E-1,1.824211515E-2
6.158953541E0,6.391397864E-2,-1.482005417E-1,-5.312849581E-2
6.168978802E0,2.982652560E-2,-9.387365729E-2,-1.447385401E-1
6.179011666E0,-1.491326280E-2,-8.428656310E-2,-2.278267145E-1
6.189049427E0,-2.876129188E-2,-1.524614692E-1,-2.565880120E-1
6.199092864E0,6.391398143E-3,-3.154421151E-1,-2.171743810E-1
6.209140729E0,8.415340632E-2,-4.635095298E-1,-1.170424819E-1
6.219191666E0,1.864157766E-1,-5.529890656E-1,-4.127778113E-3
6.229244166E0,2.109161317E-1,-6.254249215E-1,5.765573680E-2
6.239296718E0,6.071828306E-2,-4.656399786E-1,-3.821523488E-2
6.249316041E0,-2.950695455E-1,1.159772426E-1,-2.331528813E-1
6.259333281E0,-7.275541425E-1,8.360747695E-1,-4.174381793E-1
6.269350521E0,-1.051385045E0,1.397452593E0,-5.250267386E-1
6.279367760E0,-1.207974195E0,1.525280595E0,-5.122439265E-1
6.289375468E0,-1.134473205E0,1.199319243E0,-4.419385493E-1
6.299383958E0,-8.436645269E-1,5.868102312E-1,-2.853493094E-1
6.309393489E0,-3.185046613E-1,-3.741630912E-2,2.143781446E-2
6.319404375E0,4.047885537E-1,-4.667052329E-1,4.209001958E-1
6.329416771E0,1.044993639E0,-7.947970033E-1,7.212958932E-1
6.339430833E0,1.305975676E0,-1.025020480E0,8.906679749E-1
6.349446614E0,1.102516174E0,-1.055912256E0,9.833432436E-1
6.359464114E0,6.476616859E-1,-1.042064190E0,9.684299827E-1
6.369483229E0,1.991985738E-1,-8.833444715E-1,8.054493070E-1
6.379503854E0,-2.769605815E-2,-4.816184938E-1,5.284887552E-1
6.389513021E0,7.669677585E-2,8.402025700E-2,1.961360276E-1
6.399523177E0,3.888100684E-1,6.848116517E-1,-1.106510833E-1
6.409535677E0,7.659025192E-1,1.092795968E0,-3.428718746E-1
6.419550573E0,1.112103224E0,1.204645395E0,-4.611127377E-1
6.429567864E0,1.379476786E0,1.026751518E0,-4.749607742E-1
6.439587500E0,1.500913382E0,7.284862399E-1,-4.163729548E-1
6.449609271E0,1.434868932E0,3.481980562E-1,-3.556546867E-1
6.459632916E0,1.183473945E0,-2.569874749E-2,-3.279586136E-1
6.469658073E0,7.893376946E-1,-3.580514491E-1,-2.874797583E-1
6.479684375E0,4.005276263E-1,-6.350120306E-1,-2.416747361E-1
6.489685468E0,1.672415882E-1,-7.692313790E-1,-1.766955256E-1
6.499689010E0,9.374050796E-2,-7.223611474E-1,-8.082455397E-2
6.509695416E0,1.001319066E-1,-5.359453559E-1,2.356828004E-2
6.519705000E0,1.778939217E-1,-3.047898114E-1,1.151783243E-1
6.529717968E0,2.993304729E-1,-7.150376588E-2,2.003969699E-1
6.539734375E0,3.877448142E-1,1.042596847E-1,2.653761804E-1
6.549754062E0,4.069190025E-1,1.852173954E-1,3.122464418E-1
6.559776823E0,3.675054014E-1,1.798912287E-1,3.527252972E-1
6.569802291E0,2.886781394E-1,8.082455397E-2,3.900084496E-1
6.579830052E0,2.013290375E-1,-8.641702682E-2,4.326177537E-1
6.589857812E0,1.523283273E-1,-1.833532304E-1,4.677704573E-1
6.599875156E0,1.374150664E-1,-1.876141727E-1,5.029231310E-1
6.609892396E0,1.928071827E-1,-2.014621943E-1,5.125102401E-1
6.619911406E0,2.726996541E-1,-1.758965999E-1,4.975969791E-1
6.629929687E0,3.302222490E-1,-9.600412846E-2,4.773575366E-1
6.639948489E0,3.376788795E-1,-4.394086078E-3,4.411396384E-1
6.649968854E0,2.940043211E-1,1.053249165E-1,3.782908916E-1
6.659990521E0,2.375469655E-1,1.948044896E-1,3.005288541E-1
6.670013281E0,1.757634431E-1,2.171743810E-1,2.291582525E-1
6.680036875E0,1.267627329E-1,2.342181057E-1,1.748313755E-1
6.690047760E0,1.065233052E-1,2.288919389E-1,1.311568171E-1
6.700058906E0,1.033276021E-1,2.470009029E-1,1.045259908E-1
6.710071614E0,1.352845877E-1,2.693707943E-1,1.034607589E-1
6.720085989E0,2.087856680E-1,2.810883522E-1,9.706936032E-2
6.730102083E0,3.025261760E-1,3.034582436E-1,7.469946891E-2
6.740119843E0,3.898752928E-1,3.236976862E-1,3.741630912E-2
6.750139218E0,4.591154456E-1,3.641765416E-1,7.589785382E-3
6.760160052E0,5.326164961E-1,3.801550269E-1,-1.478010789E-2
6.770182187E0,6.029219031E-1,3.726983964E-1,-3.182383627E-2
6.780205364E0,6.380745769E-1,3.620460629E-1,-4.460663348E-2
6.790229271E0,6.370093226E-1,3.588503897E-1,-5.738943070E-2
6.800223125E0,5.901390910E-1,3.162410557E-1,-6.591129303E-2
6.810219531E0,5.272903442E-1,2.778926790E-1,-6.058513001E-2
6.820219271E0,4.772244096E-1,2.225005478E-1,-4.886756465E-2
6.830222864E0,4.495283365E-1,1.223686412E-1,-4.247616604E-2
6.840230729E0,4.058537781E-1,5.632419512E-2,-5.099803209E-2
6.850243073E0,3.600487709E-1,2.969337068E-2,-5.845466256E-2
6.860259948E0,3.557878435E-1,6.165036187E-2,-7.017222792E-2
6.870281146E0,4.037233293E-1,1.053249165E-1,-7.762885839E-2
6.880306354E0,4.910724163E-1,1.660431921E-1,-6.271559745E-2
6.890333281E0,6.114437580E-1,2.193048447E-1,-4.247616604E-2
6.900361458E0,7.147713304E-1,2.416747361E-1,-1.478010789E-2
6.910392187E0,7.669677734E-1,2.267614752E-1,3.422060981E-2
6.920424843E0,7.701634765E-1,1.745650619E-1,6.617759913E-2
6.930458698E0,7.041190267E-1,1.010639817E-1,8.854749799E-2
6.940493073E0,5.848129392E-1,3.062544856E-3,9.813459218E-2
6.950523437E0,4.442021847E-1,-1.258306503E-1,9.174319357E-2
6.960540416E0,3.089175820E-1,-2.504629195E-1,7.256899774E-2
6.970557448E0,2.215684652E-1,-3.133116663E-1,3.422060981E-2
6.980574479E0,1.874810159E-1,-2.834851444E-1,-8.388710208E-3
6.990591562E0,2.162422985E-1,-1.758965999E-1,-3.501953557E-2
7.000582448E0,3.067871034E-1,-8.961272985E-2,-4.567186534E-2
7.010575416E0,4.175713360E-1,1.264964230E-2,-3.715000302E-2
7.020571406E0,5.464645624E-1,9.893351793E-2,-1.691057347E-2
7.030571146E0,6.220960617E-1,1.351514459E-1,1.504641678E-2
7.040575156E0,5.826824903E-1,1.372819096E-1,3.422060981E-2
7.050583802E0,4.516588151E-1,9.999874979E-2,4.380770773E-2
7.060597291E0,2.620473206E-1,3.075860441E-2,7.363422960E-2
7.070615573E0,5.752258375E-2,-4.913387448E-2,1.077216864E-1
7.080638437E0,-1.129147038E-1,-9.813459218E-2,1.311568171E-1
7.090663646E0,-2.311555594E-1,-1.077216864E-1,1.460700780E-1
7.100690781E0,-2.929390669E-1,-8.961272985E-2,1.450048387E-1
7.110719375E0,-3.025261760E-1,-6.617759913E-2,1.205044836E-1
7.120750677E0,-2.641777992E-1,-4.913387448E-2,8.002562821E-2
7.130784010E0,-2.268946320E-1,-3.954677656E-2,4.167724028E-2
7.140817604E0,-2.236989290E-1,-2.676397935E-2,9.720250964E-3
7.150851875E0,-2.524602413E-1,5.193010904E-3,-9.453942999E-3
7.160886146E0,-2.961347699E-1,2.223674022E-2,-2.862813696E-2
7.170903750E0,-3.685706258E-1,1.797580719E-2,-5.099803209E-2
7.180920156E0,-4.772244096E-1,1.158440951E-2,-7.443315536E-2
7.190936562E0,-6.050523520E-1,2.862813696E-2,-1.095858440E-1
7.200952968E0,-7.339455485E-1,6.378082931E-2,-1.553908736E-1
7.210969427E0,-8.479254842E-1,1.266295761E-1,-2.011958808E-1
7.220985989E0,-9.171656370E-1,1.713693589E-1,-2.299571782E-1
7.231002656E0,-9.139699340E-1,1.798912287E-1,-2.384790480E-1
7.241019479E0,-8.543168902E-1,2.065220475E-1,-2.214353085E-1
7.251036510E0,-7.424674034E-1,1.671084315E-1,-1.969349533E-1
7.261053698E0,-6.189003587E-1,7.443315536E-2,-1.798912287E-1
7.271071041E0,-5.304860473E-1,-4.167724028E-2,-1.724345982E-1
7.281088541E0,-4.793548584E-1,-1.396786869E-1,-1.713693589E-1
7.291106146E0,-4.228975177E-1,-1.833532304E-1,-1.585865617E-1
7.301123854E0,-3.408745527E-1,-1.758965999E-1,-1.404775977E-1
7.311102500E0,-2.567211688E-1,-1.471353173E-1,-1.234338731E-1
7.321084323E0,-1.683068126E-1,-4.593817517E-2,-9.786828607E-2
7.331070677E0,-6.178351492E-2,4.567186534E-2,-5.419373140E-2
7.341062552E0,2.769605815E-2,8.934641629E-2,-1.158440951E-2
7.351060781E0,5.219641700E-2,7.869409025E-2,1.398118306E-2
7.361065833E0,2.236989327E-2,1.371487509E-2,3.422060981E-2
7.371077916E0,-8.308817446E-2,-5.872096866E-2,2.569874749E-2
7.381096979E0,-2.343512625E-1,-1.588528752E-1,1.824211515E-2
7.391120885E0,-3.717663288E-1,-2.483324558E-1,6.524552125E-3
7.401150937E0,-4.410064816E-1,-2.824199200E-1,-9.453942999E-3
7.411186458E0,-4.314193726E-1,-2.611152530E-1,-1.584534161E-2
7.421226458E0,-3.802881837E-1,-2.078536004E-1,-8.388710208E-3
7.431269896E0,-3.440702558E-1,-9.280842543E-2,1.717688330E-2
7.441315521E0,-3.121132851E-1,3.075860441E-2,4.913387448E-2
7.451362135E0,-2.567211688E-1,5.951989442E-2,7.469946891E-2
7.461402916E0,-2.119813710E-1,-4.806863889E-2,8.748225868E-2
7.471420156E0,-2.332860380E-1,-1.961360276E-1,8.428656310E-2
7.481437396E0,-3.280917704E-1,-2.994636297E-1,5.872096866E-2
7.491454635E0,-4.665720761E-1,-3.697690070E-1,5.459319334E-3
7.501471875E0,-5.805519819E-1,-3.910736740E-1,-2.117150649E-2
7.511447135E0,-6.242265701E-1,-3.473991156E-1,6.524552125E-3
7.521425729E0,-6.061176062E-1,-2.866808474E-1,3.315537795E-2
7.531409062E0,-5.240946412E-1,-1.748313755E-1,3.209014609E-2
7.541398333E0,-3.430050313E-1,-1.439396143E-1,-7.323476952E-3
7.551394375E0,-1.544587910E-1,-2.121145278E-1,-6.378082931E-2
7.561397812E0,-7.882724702E-2,-3.463338912E-1,-1.213034093E-1
7.571408906E0,-1.427412182E-1,-4.134435654E-1,-1.660431921E-1
7.581427552E0,-2.620473206E-1,-4.113130867E-1,-1.990654171E-1
7.591451614E0,-3.675054014E-1,-4.730966091E-1,-2.161091566E-1
7.601480625E0,-4.197018147E-1,-4.283568263E-1,-2.470009029E-1
7.611513906E0,-3.973319232E-1,-2.515281439E-1,-2.960016131E-1
7.621551354E0,-2.599168718E-1,-1.386134475E-1,-3.854812086E-1
7.631593073E0,-7.243584841E-2,-1.198387123E-3,-4.706998467E-1
7.641636823E0,6.497921795E-2,9.254211932E-2,-5.729622245E-1
7.651682604E0,2.982652560E-2,1.351514459E-1,-6.784203053E-1
7.661729218E0,-2.471340597E-1,6.910699606E-2,-7.412690520E-1
7.671765156E0,-7.350108027E-1,-1.503310055E-1,-7.604432106E-1
7.681782448E0,-1.253779292E0,-4.027912319E-1,-7.082468271E-1
7.691799635E0,-1.536066055E0,-6.296858788E-1,-5.154396296E-1
7.701816718E0,-1.537131310E0,-7.639052272E-1,-2.608489394E-1
7.711789791E0,-1.195191503E0,-5.689675808E-1,6.524552125E-3
7.721765312E0,-5.922695398E-1,-1.311568171E-1,3.473991156E-1
7.731745937E0,-3.728315607E-2,2.448704392E-1,6.552514434E-1
7.741732916E0,1.800243855E-1,4.099815488E-1,7.937317491E-1
7.751727187E0,3.195699072E-3,3.215672076E-1,8.097102642E-1
7.761729427E0,-4.005276263E-1,1.478010789E-2,8.075798154E-1
7.771739896E0,-8.127728105E-1,-3.846822679E-1,8.246235251E-1
7.781758541E0,-1.058841586E0,-6.371424794E-1,7.873403430E-1
7.791784948E0,-1.033276081E0,-6.350120306E-1,7.244915962E-1
7.801818489E0,-7.637720704E-1,-3.250292242E-1,6.680342555E-1
7.811858229E0,-3.270265460E-1,9.680305421E-2,5.987941027E-1
7.821901198E0,2.002638131E-1,3.663070202E-1,4.688356817E-1
7.831948021E0,6.774882078E-1,4.834826291E-1,2.824199200E-1
7.841997343E0,9.416660070E-1,5.122439265E-1,8.428656310E-2
7.852047812E0,1.017297506E0,5.410051942E-1,-9.147688746E-2
7.862094427E0,9.906666875E-1,5.058525205E-1,-2.203700840E-1
7.872110260E0,8.607082963E-1,4.206338823E-1,-3.034582436E-1
7.882126146E0,6.231613159E-1,2.874797583E-1,-3.780245781E-1
7.892100364E0,3.387441039E-1,1.575213373E-1,-4.089163244E-1
7.902078073E0,5.432688445E-2,4.460663348E-2,-3.961335421E-1
7.912060729E0,-2.077204436E-1,2.436720580E-2,-3.556546867E-1
7.922048437E0,-2.950695455E-1,1.095858440E-1,-2.661750913E-1
7.932043229E0,-1.757634431E-1,2.022611201E-1,-1.905435622E-1
7.942045781E0,2.236989327E-2,3.450023532E-1,-1.106510833E-1
7.952056302E0,1.597849578E-1,4.738955498E-1,-2.649767138E-2
7.962074739E0,1.704372764E-1,4.909392595E-1,1.824211515E-2
7.972100729E0,9.587097168E-2,4.355471432E-1,4.061200842E-2
7.982133646E0,7.456631400E-3,3.450023532E-1,7.469946891E-2
7.992172604E0,-7.669677585E-2,1.958697289E-1,1.098521575E-1
8.002216458E0,-1.544587910E-1,4.567186534E-2,1.386134475E-1
8.012263958E0,-1.928071827E-1,-6.524552125E-3,1.876141727E-1
8.022311979E0,-1.533935517E-1,-1.504641678E-2,2.493976802E-1
8.032361093E0,-4.047885537E-2,-7.150376588E-2,2.962679267E-1
8.042403593E0,9.587097168E-2,-1.503310055E-1,3.197030723E-1
8.052421927E0,2.141118348E-1,-2.525933683E-1,3.292901516E-1
8.062439218E0,2.418078929E-1,-3.282249272E-1,3.037245572E-1
8.072455625E0,2.236989290E-1,-3.559209704E-1,2.430062890E-1
8.082472083E0,1.970681101E-1,-2.344844192E-1,1.482005417E-1
8.092445468E0,1.800243855E-1,-9.174319357E-2,4.061200842E-2
8.102420573E0,1.736329794E-1,7.336792350E-2,-4.247616604E-2
8.112399010E0,1.917419434E-1,2.725664973E-1,-9.999874979E-2
8.122382239E0,2.599168718E-1,5.047873259E-1,-1.308905035E-1
8.132373177E0,4.047885537E-1,7.093120217E-1,-1.319557428E-1
8.142370781E0,5.848129392E-1,7.348776460E-1,-1.319557428E-1
8.152377396E0,7.541849613E-1,7.071815729E-1,-1.244991124E-1
8.162393073E0,8.670997024E-1,5.921363831E-1,-9.254211932E-2
8.172417500E0,9.267527461E-1,4.014596939E-1,-5.206326395E-2
8.182450052E0,9.619054198E-1,2.043915838E-1,-2.756290510E-2
8.192489791E0,9.480574131E-1,1.371487509E-2,-2.436720580E-2
8.202535521E0,8.543168902E-1,-1.460700780E-1,-4.460663348E-2
8.212585833E0,7.051842809E-1,-2.366148829E-1,-6.484606117E-2
8.222638177E0,5.102466345E-1,-2.621804774E-1,-9.680305421E-2
8.232692135E0,3.174394369E-1,-2.728328109E-1,-1.244991124E-1
8.242746198E0,1.619154215E-1,-2.334191799E-1,-1.532603949E-1
8.252767135E0,8.947957307E-2,-1.300915778E-1,-1.841521561E-1
8.262783229E0,1.214365661E-1,-3.954677656E-2,-2.097177505E-1
8.272799323E0,2.737648785E-1,2.756290510E-2,-2.320876420E-1
8.282815521E0,4.878767133E-1,7.017222792E-2,-2.512618303E-1
8.292831823E0,6.870753169E-1,1.053249165E-1,-2.640446424E-1
8.302848281E0,8.394036293E-1,9.786828607E-2,-2.640446424E-1
8.312864948E0,9.139699340E-1,5.525896326E-2,-2.459356785E-1
8.322859791E0,9.235570431E-1,-3.315537795E-2,-2.075872868E-1
8.332856562E0,8.639039993E-1,-1.343525201E-1,-1.692388952E-1
8.342856041E0,7.232932448E-1,-2.291582525E-1,-1.244991124E-1
8.352858854E0,5.464645624E-1,-3.410077095E-1,-8.721595258E-2
8.362865416E0,3.909405172E-1,-4.464657903E-1,-4.567186534E-2
8.372875989E0,2.908086181E-1,-5.327496529E-1,1.331541280E-4
8.382890677E0,2.524602413E-1,-5.710980296E-1,3.209014609E-2
8.392907760E0,2.822867632E-1,-5.370106101E-1,4.487293959E-2
8.402927760E0,3.589835167E-1,-4.326177537E-1,4.913387448E-2
8.412951510E0,4.527240396E-1,-2.983984053E-1,5.126433820E-2
8.422978646E0,5.187684894E-1,-1.439396143E-1,4.380770773E-2
8.433008593E0,5.187684894E-1,-1.291595027E-2,2.782921307E-2
8.443040729E0,4.687025249E-1,5.845466256E-2,7.589785382E-3
8.453074375E0,3.802881837E-1,3.501953557E-2,1.198387123E-3
8.463108802E0,2.354165018E-1,-4.061200842E-2,1.185071748E-2
8.473143333E0,4.367455468E-2,-1.119826213E-1,2.676397935E-2
8.483162968E0,-1.384802908E-1,-1.620485783E-1,2.037258074E-2
8.493180208E0,-2.705691755E-1,-1.503310055E-1,1.078548469E-2
8.503197448E0,-3.366136253E-1,-9.387365729E-2,-7.323476952E-3
8.513214687E0,-3.206351399E-1,4.141093418E-2,-2.330197208E-2
8.523231927E0,-1.970681101E-1,2.054568231E-1,-2.117150649E-2
8.533249166E0,2.130465955E-2,3.354152441E-1,-1.478010789E-2
8.543266406E0,2.503297627E-1,4.163729548E-1,-1.478010789E-2
8.553283698E0,4.069190025E-1,3.950682878E-1,-8.388710208E-3
8.563300989E0,4.495283365E-1,3.311543167E-1,9.720250964E-3
8.573318281E0,3.770924807E-1,2.853493094E-1,2.569874749E-2
8.583291093E0,2.066552043E-1,2.235657871E-1,3.315537795E-2
8.593265677E0,-2.450035885E-2,1.308905035E-1,2.889444493E-2
8.603243646E0,-2.897433937E-1,2.117150649E-2,1.504641678E-2
8.613223177E0,-5.709648728E-1,-1.002650559E-1,4.394086078E-3
8.623209687E0,-8.575125933E-1,-1.918751001E-1,-3.501953557E-2
8.633205260E0,-1.048189282E0,-1.940055639E-1,-6.058513001E-2
8.643208541E0,-1.102516174E0,-1.503310055E-1,-6.591129303E-2
8.653221562E0,-1.031145573E0,-1.396786869E-1,-4.354140162E-2
8.663244114E0,-8.724258542E-1,-1.812227666E-1,3.328853287E-3
8.673275677E0,-6.636402011E-1,-2.707023323E-1,4.274247587E-2
8.683315260E0,-4.569849670E-1,-3.133116663E-1,5.126433820E-2
8.693361666E0,-2.812215090E-1,-3.047898114E-1,2.995967865E-2
8.703413437E0,-1.491326243E-1,-2.866808474E-1,2.263620263E-3
8.713468958E0,-5.752258375E-2,-2.408758104E-1,-2.543243766E-2
8.723526562E0,-1.065233024E-3,-2.099840641E-1,-5.845466256E-2
8.733553229E0,1.065233024E-3,-9.387365729E-2,-1.063901484E-1
8.743580052E0,-4.367455468E-2,1.051917579E-2,-1.287600398E-1
8.753607760E0,-9.800143540E-2,1.191729456E-1,-1.415428370E-1
8.763635885E0,-1.544587910E-1,2.267614752E-1,-1.500647068E-1
8.773663437E0,-1.970681101E-1,3.013277948E-1,-1.585865617E-1
8.783653958E0,-2.045247406E-1,3.663070202E-1,-1.628475040E-1
8.793646614E0,-1.651111245E-1,3.897421360E-1,-1.489994675E-1
8.803642291E0,-1.043928340E-1,3.258281648E-1,-1.202381775E-1
8.813641718E0,-7.456631213E-2,2.075872868E-1,-6.697652489E-2
8.823644375E0,-1.097190008E-1,8.828118443E-2,2.263620263E-3
8.833650052E0,-2.162422985E-1,-2.250304818E-2,6.298190355E-2
8.843660833E0,-3.770924807E-1,-1.226349548E-1,1.151783243E-1
8.853676771E0,-5.741605759E-1,-1.865489334E-1,1.652442664E-1
8.863696666E0,-7.797505856E-1,-1.673747450E-1,2.046578974E-1
8.873721302E0,-9.054480791E-1,-5.446003750E-2,2.589847744E-1
8.883749114E0,-8.649691939E-1,6.910699606E-2,3.282249272E-1
8.893778958E0,-6.785534620E-1,1.575213373E-1,4.091826379E-1
8.903810885E0,-4.228975177E-1,2.139786780E-1,4.816184938E-1
8.913845260E0,-2.396774292E-1,1.820216924E-1,5.220973492E-1
8.923880260E0,-2.620473206E-1,6.697652489E-2,5.284887552E-1
8.933912656E0,-4.463326335E-1,-5.446003750E-2,4.858794212E-1
8.943930156E0,-7.094451785E-1,-1.727008969E-1,4.209001958E-1
8.953948698E0,-9.661663771E-1,-3.548557460E-1,3.505948186E-1
8.963964687E0,-1.141929746E0,-5.018579364E-1,2.568543255E-1
8.973981771E0,-1.236735582E0,-4.102478623E-1,1.503310055E-1
8.983998854E0,-1.195191503E0,-2.131797522E-1,8.002562821E-2
8.994016979E0,-9.778839350E-1,2.010627277E-2,3.848154470E-2
9.004033489E0,-6.370093226E-1,3.311543167E-1,-1.051917579E-2
9.014051093E0,-3.451355100E-1,5.985277891E-1,-1.074553803E-1
9.024068281E0,-2.098509073E-1,6.358109713E-1,-2.054568231E-1
9.034085312E0,-2.524602413E-1,4.834826291E-1,-2.576532364E-1
9.044102343E0,-4.580501914E-1,7.230269164E-2,-3.141105771E-1
9.054120468E0,-7.467283607E-1,-4.677704573E-1,-3.599156141E-1
9.064139583E0,-1.054580688E0,-9.504541755E-1,-3.545894325E-1
9.074159583E0,-1.288931966E0,-1.286002517E0,-3.375457227E-1
9.084154166E0,-1.383737683E0,-1.360568881E0,-3.503285050E-1
9.094149635E0,-1.264431596E0,-1.154978871E0,-3.343500197E-1
9.104146823E0,-1.004514694E0,-7.660356760E-1,-2.374138087E-1
9.114146458E0,-7.435326576E-1,-1.972012669E-1,-1.138467789E-1
9.124149843E0,-5.752258301E-1,5.175700784E-1,-4.460663348E-2
9.134157396E0,-5.177032351E-1,1.007577300E0,-5.738943070E-2
9.144168646E0,-5.475297570E-1,1.011838198E0,-1.149120107E-1
9.154185468E0,-6.007914543E-1,5.900059342E-1,-1.713693589E-1
9.164206562E0,-5.123770833E-1,-4.380770773E-2,-1.213034093E-1
9.174232708E0,-2.364817262E-1,-6.126421690E-1,2.569874749E-2
9.184262239E0,1.438064575E-1,-9.057143927E-1,1.758965999E-1
9.194295677E0,5.688344240E-1,-7.575138211E-1,2.557890713E-1
9.204331093E0,1.025819421E0,-2.707023323E-1,2.888112962E-1
9.214368750E0,1.411433816E0,3.503285050E-1,2.962679267E-1
9.224406666E0,1.662828803E0,8.264876604E-1,2.962679267E-1
9.234445104E0,1.805570006E0,1.073621750E0,2.930722237E-1
9.244448073E0,1.830070376E0,1.105578780E0,2.781589627E-1
9.254452656E0,1.677742004E0,1.009707808E0,2.462019771E-1
9.264458229E0,1.389063835E0,9.042496681E-1,2.248973250E-1
9.274466354E0,1.081211567E0,7.540518045E-1,2.280930281E-1
9.284476146E0,7.925333977E-1,5.473966002E-1,2.589847744E-1
9.294488906E0,6.103785038E-1,3.567199111E-1,3.090507388E-1
9.304503646E0,5.581821203E-1,1.766955256E-1,3.633776009E-1
9.314521510E0,5.848129392E-1,2.223674022E-2,4.081174135E-1
9.324540521E0,6.050523520E-1,-1.013302878E-1,4.166392684E-1
9.334562343E0,5.741605759E-1,-1.993317306E-1,3.825518191E-1
9.344584896E0,4.804200828E-1,-2.611152530E-1,3.197030723E-1
9.354609687E0,3.483312130E-1,-2.707023323E-1,2.334191799E-1
9.364635260E0,2.205032408E-1,-2.131797522E-1,1.535267085E-1
9.374662343E0,1.118494645E-1,-1.247654185E-1,9.174319357E-2
9.384689427E0,1.065232977E-2,-3.848154470E-2,5.019910634E-2
9.394689323E0,-5.645735189E-2,4.567186534E-2,3.209014609E-2
9.404690573E0,-1.139799356E-1,1.138467789E-1,1.717688330E-2
9.414694843E0,-1.789591461E-1,1.798912287E-1,2.463351376E-2
9.424701458E0,-1.512630880E-1,2.235657871E-1,4.593817517E-2
9.434711823E0,-4.367455468E-2,2.246310115E-1,6.830807030E-2
9.444724323E0,8.308817446E-2,1.607170254E-1,9.280842543E-2
9.454740885E0,1.715025157E-1,1.585865617E-1,8.641702682E-2
9.464760208E0,2.045247406E-1,2.182396203E-1,6.298190355E-2
9.474783177E0,2.034595013E-1,2.363485843E-1,2.569874749E-2
9.484808385E0,1.746982187E-1,2.075872868E-1,-3.928046674E-2
9.494836510E0,1.193061024E-1,1.777607650E-1,-1.053249165E-1
9.504865885E0,7.989247888E-2,1.202381775E-1,-1.553908736E-1
9.514897083E0,7.563154399E-2,3.075860441E-2,-1.873478591E-1
9.524928385E0,8.841434121E-2,-3.848154470E-2,-1.990654171E-1
9.534960312E0,1.256974936E-1,-4.061200842E-2,-1.980001926E-1
9.544948333E0,2.077204436E-1,-1.824211515E-2,-1.862826198E-1
9.554939271E0,3.217003644E-1,1.158440951E-2,-1.692388952E-1
9.564932968E0,4.335498512E-1,3.288906813E-2,-1.447385401E-1
9.574931354E0,5.145075321E-1,5.632419512E-2,-1.223686412E-1
9.584933229E0,5.645735264E-1,5.632419512E-2,-1.170424819E-1
9.594939062E0,5.773562789E-1,5.206326395E-2,-1.191729456E-1
9.604949166E0,5.422036052E-1,7.123745978E-2,-1.276948154E-1
9.614963646E0,4.708330035E-1,1.021292135E-1,-1.383471340E-1
9.624983125E0,3.824186623E-1,9.360735118E-2,-1.489994675E-1
9.635008385E0,2.908086181E-1,6.910699606E-2,-1.585865617E-1
9.645037135E0,2.023942769E-1,1.691057347E-2,-1.724345982E-1
9.655070521E0,1.193061024E-1,-2.143781446E-2,-1.852173954E-1
9.665106666E0,6.924014539E-2,-5.446003750E-2,-2.054568231E-1
9.675145781E0,7.030537724E-2,-6.191666797E-2,-2.256962508E-1
9.685185781E0,1.118494645E-1,-2.463351376E-2,-2.384790480E-1
9.695226771E0,1.949376464E-1,1.797580719E-2,-2.427399755E-1
9.705242031E0,3.078523576E-1,3.928046674E-2,-2.246310115E-1
9.715258437E0,4.122451842E-1,4.886756465E-2,-1.852173954E-1
9.725274896E0,4.655068219E-1,3.821523488E-2,-1.394123733E-1
9.735292552E0,4.580501914E-1,1.904104091E-2,-8.934641629E-2
9.745310208E0,3.973319232E-1,1.997311832E-3,-2.223674022E-2
9.755328958E0,3.174394369E-1,-7.682993263E-2,5.339480564E-2
9.765345573E0,2.279598713E-1,-1.471353173E-1,7.576470077E-2
9.775363281E0,1.480673850E-1,-2.185059190E-1,9.280842543E-2
9.785380156E0,8.521863818E-2,-2.504629195E-1,1.055912226E-1
9.795398125E0,5.219641700E-2,-2.898765504E-1,1.045259908E-1
9.805414896E0,2.982652560E-2,-3.537905216E-1,8.641702682E-2
9.815432760E0,8.521864191E-3,-3.676385581E-1,4.487293959E-2
9.825449166E0,9.587096982E-3,-3.228987455E-1,-1.997311832E-3
9.835466666E0,4.580501840E-2,-2.611152530E-1,-4.780233279E-2
9.845484010E0,1.075885370E-1,-2.046578974E-1,-8.828118443E-2
9.855502396E0,1.821548492E-1,-1.503310055E-1,-1.223686412E-1
9.865518489E0,2.577863932E-1,-1.055912226E-1,-1.372819096E-1
9.875535677E0,3.163742125E-1,-5.446003750E-2,-1.308905035E-1
9.885552864E0,3.504616618E-1,-3.102491237E-2,-1.042596847E-1
9.895555521E0,3.504616618E-1,-1.078548469E-2,-6.804175675E-2
9.905559323E0,2.897433937E-1,3.501953557E-2,-4.673709720E-2
9.915565833E0,1.757634431E-1,3.715000302E-2,-6.058513001E-2
9.925574323E0,5.326164886E-3,5.951989442E-2,-7.869409025E-2
9.935586146E0,-1.683068126E-1,3.928046674E-2,-8.721595258E-2
9.945600260E0,-2.737648785E-1,-1.185071748E-2,-9.467258304E-2
9.955617812E0,-3.366136253E-1,-4.593817517E-2,-6.910699606E-2
9.965637552E0,-3.589835167E-1,-2.676397935E-2,-3.075860441E-2
9.975660364E0,-3.547225893E-1,1.264964230E-2,-7.323476952E-3
9.985684843E0,-3.408745527E-1,1.191729456E-1,-9.453942999E-3
9.995711718E0,-3.909405172E-1,1.468690038E-1,-6.258244161E-3
1.000573943E1,-4.718982279E-1,1.671084315E-1,-5.632419512E-2
1.001576859E1,-5.784215331E-1,1.990654171E-1,-9.041165560E-2
1.002579479E1,-7.190322876E-1,3.503285050E-1,-9.147688746E-2
1.003582167E1,-8.543168902E-1,4.035901725E-1,-1.213034093E-1
1.004582911E1,-9.512531161E-1,4.025249183E-1,-1.479342431E-1
1.005583802E1,-9.459269047E-1,3.034582436E-1,-1.543256342E-1
1.006584760E1,-9.065132737E-1,2.960016131E-1,-1.223686412E-1
1.007585917E1,-8.841434121E-1,3.428718746E-1,-1.085206121E-1
