"Time (s)","Linear Acceleration x (m/s^2)","Linear Acceleration y (m/s^2)","Linear Acceleration z (m/s^2)"
2.584115000E-2,0.000000000E0,0.000000000E0,0.000000000E0
3.584427500E-2,-9.975245595E-2,-2.069473267E-4,2.973427773E-1
4.585151400E-2,-2.591827810E-1,6.432151794E-2,5.218906403E-1
5.586203500E-2,-3.961940110E-1,2.271714211E-1,7.289609909E-1
6.587703500E-2,-4.731831551E-1,3.727440834E-1,7.895431519E-1
7.589531600E-2,-4.849940240E-1,4.565696716E-1,6.014270782E-1
8.591776400E-2,-3.352719545E-1,4.911017418E-1,3.788785934E-1
9.594292000E-2,-1.790339947E-1,4.597816467E-1,1.071605682E-1
1.059714100E-1,-7.726663351E-2,4.031200409E-1,-1.057834625E-1
1.160015140E-1,3.757348657E-2,3.709053993E-1,-2.260999680E-1
1.260337540E-1,1.230526865E-1,3.654813766E-1,-2.961397171E-1
1.360570870E-1,1.706289947E-1,3.411054611E-1,-3.084440231E-1
1.460819310E-1,1.543576121E-1,3.039774895E-1,-7.778167725E-2
1.561068270E-1,9.578201175E-2,2.886757851E-1,3.290567398E-1
1.661325040E-1,7.495880127E-4,3.117327690E-1,6.435718536E-1
1.761413580E-1,-1.216644049E-2,3.170142174E-1,7.827463150E-1
1.861515660E-1,-5.566886067E-2,3.256478310E-1,6.959705353E-1
1.961622430E-1,-1.142358556E-1,3.696012497E-1,4.486293793E-1
2.061729200E-1,-1.052557603E-1,3.723387718E-1,2.908391953E-1
2.161838580E-1,-3.690467775E-2,3.878502846E-1,2.248725891E-1
2.261970870E-1,1.880749315E-2,3.474183083E-1,2.502536774E-1
2.362108370E-1,4.322431237E-2,3.401908875E-1,1.753883362E-1
2.462269830E-1,8.009941876E-2,3.371143341E-1,8.219242096E-2
2.562443790E-1,9.572891891E-2,3.232212067E-1,1.231603622E-1
2.662640140E-1,1.257000864E-1,2.576341629E-1,5.377292633E-2
2.762846390E-1,1.607041657E-1,1.757383347E-1,-1.551074982E-1
2.863071390E-1,3.146522343E-1,1.071376801E-1,-2.969732285E-1
2.963301080E-1,4.651733339E-1,1.354694366E-3,-3.613967896E-1
3.063543790E-1,4.955020845E-1,-7.473707199E-2,-3.611831665E-1
3.163752640E-1,5.459148884E-1,-8.065748215E-2,-1.780595779E-1
3.263970350E-1,5.744642019E-1,-1.649618149E-2,8.207893372E-2
3.364089100E-1,4.645954370E-1,-7.811546326E-3,2.846155167E-1
3.464220350E-1,2.769076526E-1,2.023172379E-2,4.232044220E-1
3.564354200E-1,1.167356074E-1,8.971643448E-2,4.353208542E-1
3.664502640E-1,5.477843434E-2,8.805847168E-2,3.570575714E-1
3.764580250E-1,-2.017538249E-2,9.831047058E-2,1.103858948E-1
3.864679200E-1,-7.444858551E-2,1.603245735E-1,-2.277994156E-1
3.964790660E-1,1.721267402E-2,2.236137390E-1,-3.677721024E-1
4.064926600E-1,1.042677015E-1,1.675052643E-1,-2.779092789E-1
4.165076600E-1,7.241344452E-2,1.580066681E-1,5.974960327E-2
4.265251600E-1,3.525498509E-2,2.429046631E-1,5.757675171E-1
4.365439620E-1,-4.764661193E-3,3.086533546E-1,9.369297028E-1
4.465650040E-1,-5.829546228E-2,3.261466026E-1,1.106103897E0
4.565862540E-1,-2.849653363E-2,4.134197235E-1,1.073853493E0
4.666092750E-1,6.895826757E-2,5.563745499E-1,8.389978409E-1
4.766327120E-1,1.554274261E-1,6.017823219E-1,5.915403366E-1
4.866573470E-1,2.839711010E-1,6.003823280E-1,6.023454666E-1
4.966762020E-1,2.484481335E-1,7.026600838E-1,7.772636414E-1
5.066960450E-1,1.477746069E-1,8.442897797E-1,1.203061104E0
5.167096390E-1,-7.701739669E-2,9.567179680E-1,1.829539299E0
5.267243790E-1,-1.202939600E-1,1.119927883E0,2.165148735E0
5.367392750E-1,-1.076364815E-1,1.329704762E0,2.332312584E0
5.467449520E-1,-8.770625293E-2,1.478383064E0,2.305345535E0
5.567516180E-1,2.646996081E-2,1.593343735E0,2.189476013E0
5.667607850E-1,1.524558961E-1,1.705078125E0,2.474332809E0
5.767715140E-1,1.116104349E-1,1.807602406E0,2.763256073E0
5.867850560E-1,4.906117916E-2,2.064072609E0,3.109274864E0
5.968003680E-1,1.273415089E-1,2.211596966E0,3.531366348E0
6.068184930E-1,2.060310692E-1,2.433613300E0,4.025227547E0
6.168381810E-1,1.647503464E-3,2.827775955E0,4.505273819E0
6.268603680E-1,-2.898606062E-1,3.257010937E0,4.984643936E0
6.368836500E-1,-4.659281075E-1,3.473886013E0,5.409811974E0
6.469069830E-1,-3.758552074E-1,3.533160210E0,5.684709549E0
6.569258370E-1,-5.353118852E-2,3.614579201E0,6.064645767E0
6.669463580E-1,2.285813093E-1,3.436940670E0,6.545162201E0
6.769672430E-1,3.821134865E-1,3.196730137E0,6.784055710E0
6.869893790E-1,4.011709988E-1,3.125629425E0,6.556983948E0
6.969926600E-1,4.140313268E-1,2.891881466E0,6.019254684E0
7.069964620E-1,3.061975539E-1,2.327561378E0,5.466591835E0
7.170012540E-1,2.973919809E-1,1.470101833E0,4.061957359E0
7.270092750E-1,6.955404580E-2,7.314033508E-1,1.910242081E0
7.370196910E-1,-3.677390814E-1,9.278917313E-2,2.308073044E-1
7.470326080E-1,-8.140960336E-1,-6.827135086E-1,-1.445453644E0
7.570480770E-1,-8.462387323E-1,-1.215293884E0,-2.999807358E0
7.670671390E-1,-1.430035949E0,-2.438354492E0,-4.807655334E0
7.770877640E-1,-2.113202095E0,-2.595198154E0,-6.592338085E0
7.871115140E-1,-2.503450394E0,-3.091103554E0,-7.147315025E0
7.971362020E-1,-2.187309742E0,-4.062106609E0,-6.898119926E0
8.071633370E-1,-1.697526932E0,-5.195473671E0,-6.448413849E0
8.171912540E-1,-1.079037189E0,-5.951527119E0,-5.915388107E0
8.272205250E-1,-4.317103028E-1,-6.519788742E0,-5.539943695E0
8.372442750E-1,1.437042654E-1,-6.912920475E0,-5.842163086E0
8.472607330E-1,4.522137642E-1,-7.122638226E0,-6.658029556E0
8.572599520E-1,4.178981781E-1,-7.284667015E0,-7.746087551E0
8.672616700E-1,3.920885324E-1,-7.352874279E0,-8.432748795E0
8.772652640E-1,5.210755467E-1,-7.372503281E0,-8.905020714E0
8.872722430E-1,7.957388163E-1,-7.426178932E0,-9.055127144E0
8.972810970E-1,6.466205120E-1,-7.887641430E0,-1.002801609E1
9.072938580E-1,8.557300568E-1,-8.159996033E0,-1.099903679E1
9.173094310E-1,8.172612190E-1,-8.588991165E0,-1.208333588E1
9.273288580E-1,6.811386943E-1,-8.823736191E0,-1.292726517E1
9.373500560E-1,9.470437765E-1,-9.077706337E0,-1.268736458E1
9.473745870E-1,1.095056981E-1,-8.714694023E0,-1.221114159E1
9.574002120E-1,1.061881334E-1,-8.317690849E0,-1.165507889E1
9.674283370E-1,2.757032216E-1,-8.521881104E0,-1.006319046E1
9.774566180E-1,5.296033621E-1,-8.816470146E0,-8.932503700E0
9.874864100E-1,3.686028719E-1,-8.814594269E0,-8.146829605E0
9.975115660E-1,1.248168349E-1,-8.585264206E0,-8.035386086E0
1.007537452E0,-1.467538774E-1,-8.542525291E0,-8.530457497E0
1.017545004E0,-2.326556742E-1,-8.328604698E0,-8.862067223E0
1.027552920E0,-5.926964283E-1,-8.349738121E0,-9.290998459E0
1.037560733E0,-6.857057810E-1,-7.807056427E0,-9.335988045E0
1.047570681E0,-4.881205857E-1,-7.748815536E0,-8.788002014E0
1.057581150E0,-6.758332253E-2,-7.318175793E0,-7.394558430E0
1.067594118E0,2.886768579E-1,-6.502745152E0,-5.963576317E0
1.077607868E0,5.776609778E-1,-5.599488258E0,-4.995013237E0
1.087624275E0,1.010061622E0,-4.753748894E0,-4.340100288E0
1.097641462E0,1.439081430E0,-3.675828695E0,-4.469817162E0
1.107661202E0,1.287050247E0,-2.358523130E0,-5.124205589E0
1.117682139E0,6.994236708E-1,-1.225068569E0,-5.951730728E0
1.127705160E0,4.914158583E-2,-5.528049469E-1,-6.271066189E0
1.137727816E0,-5.868605375E-1,-1.525692940E-1,-5.699475288E0
1.147751983E0,-6.451496482E-1,-1.390409470E-2,-2.848601341E0
1.157761254E0,7.155929804E-1,2.039709091E-1,3.857727528E0
1.167772556E0,3.231240988E0,7.841567993E-1,1.141731071E1
1.177784275E0,4.533824921E0,5.835556984E-1,1.388652039E1
1.187798389E0,4.192305088E0,5.385875702E-3,9.980372429E0
1.197813077E0,4.128413200E0,5.079140663E-1,3.119058609E0
1.207828441E0,4.656970978E0,1.627820015E0,6.047224998E-1
1.217844483E0,2.792873383E0,2.471854210E0,4.905778408E0
1.227862972E0,-7.386385202E-1,5.073130608E0,1.343043995E1
1.237881983E0,-3.333368778E0,7.965324879E0,2.051743698E1
1.247903181E0,-3.384150267E0,9.137693405E0,2.216981125E1
1.257924535E0,-2.141478300E0,1.082333755E1,1.946419907E1
1.267947608E0,-1.526336074E-1,1.200697803E1,1.492949772E1
1.277961775E0,2.941856086E-1,1.365406895E1,9.625826836E0
1.287977868E0,6.337760687E-1,1.461659431E1,4.366232872E0
1.297993962E0,3.907132447E-1,1.461823845E1,4.185839653E0
1.308011879E0,-1.903838038E0,1.339891338E1,8.819852829E0
1.318028597E0,-4.450117588E0,1.157996845E1,1.805066109E1
1.328047139E0,-5.912516594E0,1.028228474E1,2.662290764E1
1.338062035E0,-6.183743000E0,8.463543892E0,3.042884254E1
1.348078754E0,-4.528506279E0,7.943107605E0,3.040817451E1
1.358095472E0,-3.207612514E0,6.355321407E0,2.372513580E1
1.368113962E0,-1.568206549E0,5.520278454E0,1.335307693E1
1.378128910E0,-3.370036781E-1,4.522338867E0,3.196619034E0
1.388145681E0,8.331367373E-1,3.099164009E0,-3.270706177E0
1.398162295E0,1.600467920E0,2.155095577E0,-5.652079582E0
1.408180681E0,2.038896561E0,1.445882320E0,-3.495961189E0
1.418195733E0,1.769593120E0,7.658538818E-1,1.276829720E0
1.428212608E0,9.439966083E-1,3.242950439E-1,6.244199753E0
1.438229170E0,-2.862011790E-1,3.652901649E-1,9.966029167E0
1.448247504E0,-1.604204416E0,2.517695427E-1,1.014778423E1
1.458262608E0,-2.087947607E0,8.378744125E-2,6.121442795E0
1.468279587E0,-1.675424814E0,3.649964333E-1,3.706912994E-1
1.478295993E0,-1.144352913E0,4.398531914E-1,-4.635967255E0
1.488314170E0,-6.960845590E-1,6.185770035E-2,-7.927000999E0
1.498344275E0,8.219540119E-2,-6.468076706E-1,-9.657959938E0
1.508375056E0,6.452880502E-1,-1.270728111E0,-1.017711926E1
1.518362868E0,6.458853483E-1,-2.099788189E0,-9.959727287E0
1.528353597E0,1.161226630E-2,-2.534575462E0,-8.402870178E0
1.538346358E0,-7.760053873E-1,-3.041668415E0,-5.640374184E0
1.548343858E0,-1.515904546E0,-3.873804331E0,-3.117215633E0
1.558344847E0,-1.625704408E0,-4.976326942E0,-1.073398590E0
1.568349952E0,-1.180818558E0,-6.097244263E0,3.989095688E-1
1.578369014E0,-2.192772031E-1,-7.089932919E0,6.003856659E-1
1.588393545E0,8.080629706E-1,-7.563488960E0,-6.971588135E-1
1.598423077E0,1.593453765E0,-8.021887779E0,-3.634523392E0
1.608456775E0,2.200497627E0,-8.107994080E0,-6.642515659E0
1.618492035E0,2.281753778E0,-8.110839844E0,-9.454528809E0
1.628529847E0,1.486979842E0,-7.453248024E0,-1.188255215E1
1.638563389E0,1.173899695E-2,-6.360255241E0,-1.344876862E1
1.648598025E0,-7.866818905E-1,-5.574987411E0,-1.393180656E1
1.658596827E0,-9.657984376E-1,-5.106750488E0,-1.362269211E1
1.668596306E0,-5.401453376E-1,-5.296012878E0,-1.284608459E1
1.678598702E0,-7.137772441E-2,-5.596971989E0,-1.142853165E1
1.688604691E0,4.632623196E-1,-5.898584843E0,-9.029296875E0
1.698612868E0,1.097910881E0,-6.347118378E0,-6.573163986E0
1.708623389E0,1.582739353E0,-6.840113163E0,-5.007674217E0
1.718636410E0,1.642388582E0,-7.155186176E0,-4.350200653E0
1.728653754E0,1.069284678E0,-7.097145557E0,-4.666647911E0
1.738673441E0,1.437572539E-1,-6.704574585E0,-5.222858429E0
1.748697087E0,-6.277801991E-1,-6.346713066E0,-5.730162621E0
1.758722452E0,-9.854159951E-1,-6.492632389E0,-6.276408195E0
1.768749795E0,-7.890856862E-1,-6.429527283E0,-6.570932388E0
1.778778025E0,-4.738129377E-1,-6.837575912E0,-6.746642590E0
1.788808389E0,-2.750726342E-1,-7.124095917E0,-7.361010551E0
1.798836618E0,1.828218997E-2,-7.097681046E0,-7.993548393E0
1.808865889E0,2.413970530E-1,-6.992705345E0,-8.801095963E0
1.818864275E0,3.605682850E-1,-6.830091000E0,-9.470119476E0
1.828865160E0,3.775913715E-1,-6.738934994E0,-9.595582962E0
1.838867295E0,3.388857841E-1,-6.652736187E0,-8.879897118E0
1.848872972E0,1.531126201E-1,-6.375068188E0,-7.596197128E0
1.858880733E0,-1.258767396E-1,-5.845952511E0,-6.652897358E0
1.868891566E0,-3.282994032E-3,-5.063183308E0,-6.152697086E0
1.878904952E0,8.717941046E-1,-4.261212349E0,-6.141895294E0
1.888922608E0,2.120821238E0,-2.668775558E0,-5.978631973E0
1.898942660E0,3.151110888E0,-1.277819157E0,-5.848230362E0
1.908966618E0,3.121486664E0,1.987295151E-1,-5.902333736E0
1.918992295E0,1.599539995E0,9.330339432E-1,-5.715175629E0
1.929020941E0,-6.891211867E-1,7.365570068E-1,-4.366031647E0
1.939050160E0,-2.840923786E0,7.312417030E-1,-1.353186131E0
1.949081202E0,-3.338222027E0,2.455695152E0,4.909399033E0
1.959098285E0,-3.407165289E0,5.651603699E0,1.032812500E1
1.969116045E0,-3.957180977E0,6.164170265E0,1.019689941E1
1.979133806E0,6.474441290E-2,3.581255913E0,7.574645519E0
1.989153181E0,4.533161640E0,2.321376801E0,6.399633408E0
1.999165108E0,5.040602684E0,1.935283661E0,1.004582977E1
2.009179014E0,1.692295909E0,3.610622406E0,1.567854023E1
2.019193129E0,-2.590744972E0,6.928149223E0,1.911198044E1
2.029207556E0,-4.665461063E0,9.175373077E0,1.896624947E1
2.039222347E0,-4.138669014E0,1.000047016E1,1.477757168E1
2.049239379E0,-1.939962745E0,1.019228172E1,9.778872490E0
2.059256722E0,-7.642466426E-1,1.100940895E1,7.516715050E0
2.069276202E0,-1.257452965E0,1.127380085E1,8.179223061E0
2.079295785E0,-1.774900675E0,1.054437256E1,1.087045383E1
2.089317139E0,-2.085199833E0,9.777347565E0,1.406850147E1
2.099332295E0,-2.884969711E0,9.394289970E0,1.807488632E1
2.109349275E0,-3.656250954E0,8.475124359E0,2.241558647E1
2.119365733E0,-3.648099899E0,6.974613667E0,2.439697266E1
2.129383962E0,-2.464474440E0,5.668678284E0,2.318432617E1
2.139399170E0,-9.200319648E-1,5.200237274E0,1.822333145E1
2.149416254E0,2.356016636E-2,5.263510704E0,1.114366436E1
2.159432608E0,4.219830930E-1,5.522757053E0,4.354801178E0
2.169450733E0,6.684247255E-1,5.590804100E0,-4.460783005E-1
2.179466045E0,7.695441246E-1,4.808829784E0,-3.467480183E0
2.189483181E0,1.144085646E0,4.791951656E0,-2.411379814E0
2.199499483E0,1.544847250E0,3.903072357E0,4.225273132E-1
2.209515785E0,1.324512124E0,3.201875210E0,4.206881523E0
2.219532087E0,3.373091221E-1,2.464407921E0,7.599248886E0
2.229550264E0,-8.115615249E-1,1.557095528E0,9.562003136E0
2.239566358E0,-1.403341651E0,5.733880997E-1,9.171920776E0
2.249584222E0,-1.570137620E0,2.467746735E-1,6.046508789E0
2.259599795E0,-1.373397350E0,3.256568909E-1,1.400825500E0
2.269617191E0,-1.338479996E0,3.580746651E-1,-3.240294933E0
2.279633233E0,-1.485556245E0,3.741698265E-1,-6.599106312E0
2.289651045E0,-1.567672014E0,-1.206426620E-1,-7.921210766E0
2.299666670E0,-1.675404072E0,-9.399476051E-1,-8.087250710E0
2.309684066E0,-1.484099388E0,-1.610470295E0,-6.931095123E0
2.319700108E0,-1.008432388E0,-2.753633499E0,-5.693490982E0
2.329717920E0,-6.918814778E-1,-4.175220490E0,-4.729796886E0
2.339733493E0,-4.883477986E-1,-5.539580345E0,-4.398488998E0
2.349750941E0,-2.642513812E-1,-6.819559097E0,-4.406483173E0
2.359766983E0,3.397545218E-2,-7.957067966E0,-4.807907104E0
2.369784847E0,3.406062722E-1,-8.801640511E0,-6.096270561E0
2.379800420E0,7.284235954E-1,-9.181403160E0,-7.657742500E0
2.389817816E0,9.532759786E-1,-8.912851334E0,-9.293648720E0
2.399833858E0,7.191607356E-1,-8.307335854E0,-1.073149967E1
2.409851670E0,6.239987612E-1,-7.647538185E0,-1.151799393E1
2.419867295E0,9.675734043E-1,-7.242709160E0,-1.187614441E1
2.429884743E0,6.896991730E-1,-6.907410622E0,-1.219252396E1
2.439900733E0,8.592694998E-1,-6.647868156E0,-1.193097782E1
2.449918545E0,1.023943543E0,-6.940988541E0,-1.089810848E1
2.459934170E0,1.152828574E0,-7.045705795E0,-9.702502251E0
2.469951566E0,1.076618791E0,-7.161215305E0,-8.161369324E0
2.479967608E0,9.323638678E-1,-7.414054871E0,-6.784973621E0
2.489985472E0,8.550942540E-1,-7.717544556E0,-5.816860199E0
2.500001045E0,7.674795389E-1,-7.971652985E0,-5.460304260E0
2.510018441E0,6.593725085E-1,-8.088739395E0,-5.394848347E0
2.520034483E0,4.752953053E-1,-8.091496468E0,-5.477601051E0
2.530052295E0,1.766649336E-1,-7.975082397E0,-5.822894573E0
2.540067920E0,-1.782237887E-1,-7.790677071E0,-6.507602692E0
2.550085420E0,-6.526812911E-2,-7.487706184E0,-6.960639000E0
2.560101358E0,-4.465140402E-2,-7.432485104E0,-7.633004189E0
2.570119118E0,-4.226389527E-2,-7.345726013E0,-8.358214378E0
2.580134795E0,-1.897034794E-1,-7.195785522E0,-8.714335442E0
2.590150472E0,-2.740943432E-1,-6.865719318E0,-8.920122147E0
2.600166202E0,-2.428860068E-1,-6.531232834E0,-9.034850121E0
2.610183806E0,7.198314369E-2,-6.378270626E0,-8.872614861E0
2.620201410E0,6.545842886E-1,-6.308469772E0,-8.135990143E0
2.630220785E0,9.813174605E-1,-5.934710503E0,-7.457641125E0
2.640235108E0,1.021754503E0,-5.257836819E0,-6.737829685E0
2.650251306E0,1.038667440E0,-4.569102287E0,-5.968721390E0
2.660267504E0,1.284278274E0,-3.298204184E0,-5.244149685E0
2.670285525E0,1.367035747E0,-2.263911963E0,-5.609069824E0
2.680301983E0,1.173386812E0,-1.324500084E0,-6.249058723E0
2.690318441E0,5.012676716E-1,-6.080775261E-1,-6.650091648E0
2.700334900E0,-7.806192636E-1,-1.698575020E-1,-5.974801064E0
2.710351358E0,-1.781577468E0,5.140533447E-1,-2.726004124E0
2.720367816E0,-9.651689529E-1,2.157398701E0,3.666038990E0
2.730386097E0,2.438438833E-1,3.961832047E0,9.673992157E0
2.740402295E0,1.214089692E-1,3.546449184E0,1.075403214E1
2.750420264E0,2.348752916E-1,8.848881721E-1,9.477496147E0
2.760435733E0,1.167315006E0,-5.277347565E-1,7.073426723E0
2.770453025E0,1.036449671E0,1.849470139E-1,6.794761181E0
2.780469222E0,-9.575200677E-1,1.835594177E0,9.979100227E0
2.790486097E0,-2.560336113E0,3.585453987E0,1.342846680E1
2.800502660E0,-3.191444635E0,4.761645794E0,1.493455887E1
2.810520993E0,-3.154701948E0,5.915289402E0,1.375785160E1
2.820536097E0,-2.416951656E0,7.083405018E0,1.158144760E1
2.830553025E0,-1.678995132E0,8.091283798E0,9.449857712E0
2.840569535E0,-1.805244446E0,8.832028389E0,7.611257553E0
2.850587868E0,-2.549597740E0,8.993470192E0,6.568720818E0
2.860602972E0,-2.756283760E0,8.577787399E0,6.931338310E0
2.870619900E0,-2.341520786E0,7.991204739E0,7.599385262E0
2.880636410E0,-2.055075169E0,7.652756691E0,9.470317841E0
2.890653597E0,-2.034372330E0,6.883116722E0,1.329853535E1
2.900683077E0,-1.983025074E0,6.180901051E0,1.875465393E1
2.910713337E0,-1.802901030E0,5.579527378E0,2.303675079E1
2.920703337E0,-1.837309361E0,4.856621742E0,2.423216248E1
2.930696150E0,-1.917398930E0,4.427057266E0,2.158129883E1
2.940690837E0,-1.326917648E0,4.152696609E0,1.596369648E1
2.950690004E0,-3.365244865E-1,3.418416977E0,9.620587349E0
2.960692400E0,3.699963689E-1,3.064783573E0,4.890953064E0
2.970700264E0,6.004614234E-1,3.144662380E0,2.100098610E0
2.980711931E0,4.398596287E-1,3.518576622E0,1.194814682E0
2.990729222E0,-4.507064819E-1,4.272496700E0,1.821867943E0
3.000752608E0,-1.472822309E0,4.820814133E0,3.979107857E0
3.010780889E0,-1.762337685E0,5.104955196E0,7.467539787E0
3.020811618E0,-1.531714916E0,5.330443859E0,1.098547459E1
3.030844118E0,-9.798163176E-1,5.284922600E0,1.378380775E1
3.040877712E0,-9.723290205E-1,4.566455364E0,1.471016121E1
3.050913441E0,-7.477991581E-1,3.898890495E0,1.338071251E1
3.060937452E0,-8.640971780E-1,1.966756821E0,1.012251282E1
3.070962920E0,-1.196727276E0,1.105785370E0,6.388743877E0
3.080970889E0,-1.554101706E0,2.033977509E-1,3.658570766E0
3.090980993E0,-1.273439169E0,-5.818729401E-1,1.727295399E0
3.100991618E0,-9.087577462E-1,-1.100214005E0,2.825412750E-1
3.111004743E0,-6.857017875E-1,-1.103287220E0,-7.702760696E-1
3.121018650E0,-2.895511985E-1,-1.390339851E0,-1.460405827E0
3.131035212E0,2.598595619E-1,-2.561744213E0,-1.404154778E0
3.141052504E0,8.067808747E-1,-3.999977112E0,-1.714320660E0
3.151072295E0,1.691885948E0,-5.325208664E0,-2.073425293E0
3.161092556E0,2.475276709E0,-6.566123009E0,-3.376997471E0
3.171114952E0,2.584380150E0,-7.325979710E0,-5.270316124E0
3.181137347E0,2.486638546E0,-7.918722153E0,-7.079946995E0
3.191161306E0,1.680196047E0,-8.233407974E0,-9.813255310E0
3.201171566E0,1.159722090E0,-8.234019279E0,-1.167391968E1
3.211182035E0,2.646950185E-1,-8.240058899E0,-1.181992912E1
3.221192972E0,-8.111165762E-1,-8.126697540E0,-1.060138512E1
3.231206410E0,-1.580863357E0,-7.964893818E0,-8.641252518E0
3.241220577E0,-1.738074422E0,-7.901425362E0,-5.881955147E0
3.251237347E0,-1.593485594E0,-7.862910748E0,-3.504573107E0
3.261254795E0,-1.077935696E0,-7.889362335E0,-2.128528118E0
3.271274691E0,-2.836107016E-1,-8.042691231E0,-1.989972115E0
3.281295004E0,5.477132201E-1,-8.424730301E0,-2.831858397E0
3.291317400E0,1.276757598E0,-8.801811218E0,-3.848298311E0
3.301338806E0,9.959843159E-1,-8.603071213E0,-4.888346672E0
3.311361775E0,7.490329146E-1,-8.646999359E0,-5.613629818E0
3.321372243E0,1.332707554E-1,-8.822364807E0,-7.178056240E0
3.331384743E0,7.486264706E-1,-8.500488281E0,-8.474561691E0
3.341397556E0,1.481370628E-1,-8.650431633E0,-9.084697723E0
3.351412608E0,-4.816927016E-1,-8.344604492E0,-9.098167419E0
3.361428077E0,-6.739203930E-1,-7.803237438E0,-8.945085526E0
3.371445837E0,-9.143375158E-1,-6.985905647E0,-8.818631172E0
3.381463910E0,-9.332694411E-1,-6.447022915E0,-7.929634094E0
3.391484066E0,-6.512634754E-1,-6.449980259E0,-6.504367352E0
3.401504847E0,-3.345827460E-1,-6.656235695E0,-5.363651276E0
3.411522764E0,-4.723529518E-2,-6.681414604E0,-3.904350281E0
3.421548702E0,-2.149231285E-1,-6.817832947E0,-3.024320602E0
3.431575681E0,-6.119710207E-1,-7.025085449E0,-2.649100780E0
3.441575941E0,-7.020885348E-1,-7.021905422E0,-2.690087080E0
3.451578493E0,-4.469119906E-1,-6.916273594E0,-3.283724785E0
3.461583806E0,-1.879957616E-1,-6.821326733E0,-4.643725872E0
3.471592295E0,1.364151537E-1,-6.790670395E0,-5.686327457E0
3.481604118E0,6.930841208E-1,-6.657878876E0,-5.693112850E0
3.491619379E0,1.050481319E0,-6.277765274E0,-5.190997124E0
3.501636150E0,9.962079525E-1,-5.391265869E0,-4.550196648E0
3.511655108E0,7.221382260E-1,-4.211871147E0,-3.795543432E0
3.521679847E0,4.812895358E-1,-2.789618969E0,-3.726178169E0
3.531707139E0,7.554417104E-2,-1.445665836E0,-4.874455929E0
3.541736462E0,-4.623016119E-1,-4.849333763E-1,-6.801755905E0
3.551767243E0,-2.414658815E-1,2.015089989E-1,-8.237521172E0
3.561776566E0,3.718678653E-2,8.833880424E-1,-7.310591698E0
3.571787868E0,8.229025006E-1,1.747766018E0,-2.615430117E0
3.581801254E0,1.480026722E0,3.232532978E0,3.218986988E0
3.591816775E0,3.327242434E-1,4.823264599E0,5.451591969E0
3.601833285E0,-1.232335567E0,5.511530876E0,5.766170025E0
3.611850056E0,-1.687943101E0,5.030082226E0,5.456826210E0
3.621867191E0,-1.309971690E0,4.830136776E0,5.152623653E0
3.631886358E0,-8.077763915E-1,5.157039642E0,5.113648415E0
3.641907347E0,-3.493163586E-1,5.726178169E0,6.052699566E0
3.651930004E0,1.307622433E0,5.541620255E0,7.052081585E0
3.661953962E0,1.556535006E0,8.267383575E0,9.839224815E0
3.671978858E0,1.362033963E0,1.043358231E1,1.241878986E1
3.682004327E0,-3.159409165E-1,1.343076420E1,1.480618095E1
3.692030004E0,-2.642809868E0,1.649864197E1,1.577541161E1
3.702007868E0,-4.455029964E0,1.828428459E1,1.433480453E1
3.711987243E0,-2.910807848E0,1.589996719E1,1.087056923E1
3.721971358E0,-1.425302267E0,1.336409760E1,8.565016747E0
3.731961358E0,-2.102908611E0,1.319061661E1,8.155108452E0
3.741958025E0,-2.626996994E0,1.247436905E1,9.890792847E0
3.751961931E0,-2.681326151E0,1.173870182E1,1.234558868E1
3.761973285E0,-2.320418835E0,1.122371101E1,1.438579178E1
3.771991983E0,-1.326643348E0,1.040184784E1,1.640376091E1
3.782017660E0,-5.641924143E-1,9.529500961E0,1.796590614E1
3.792049691E0,-5.144406557E-1,8.575072289E0,1.820718956E1
3.802087191E0,-1.055927038E0,7.551462173E0,1.655414581E1
3.812128025E0,-1.673749685E0,6.867761612E0,1.270305634E1
3.822172191E0,-1.783678651E0,6.216505051E0,8.690969467E0
3.832218493E0,-1.590102315E0,5.276269913E0,5.888130665E0
3.842265681E0,-9.383441210E-1,4.116494179E0,3.773736954E0
3.852303233E0,-3.622050881E-1,2.781520844E0,1.728309155E0
3.862321045E0,1.075763583E0,1.213601112E0,1.034936905E-1
3.872336670E0,1.505888939E0,-6.573677063E-1,-2.090801716E0
3.882352295E0,1.570071459E0,-2.155617237E0,-4.049645901E0
3.892368025E0,1.245441198E0,-3.305217266E0,-5.516354561E0
3.902383910E0,7.084218264E-1,-4.274401188E0,-6.936015129E0
3.912399900E0,3.600229025E-1,-5.248972893E0,-8.496984482E0
3.922416097E0,3.282452226E-1,-5.821238518E0,-9.843036652E0
3.932432452E0,-1.176197529E-1,-6.870758057E0,-1.064518452E1
3.942448962E0,-1.892853379E-1,-7.506764412E0,-1.081348705E1
3.952443754E0,-5.261123180E-3,-7.978386879E0,-1.027059746E1
3.962440472E0,2.942528427E-1,-8.955445290E0,-8.963796616E0
3.972439847E0,2.933810055E-1,-9.750327110E0,-7.211719990E0
3.982442452E0,1.689845920E-1,-1.014802361E1,-4.470870018E0
3.992448702E0,1.761611700E-1,-1.030663586E1,-1.896774292E0
4.002458910E0,6.037730575E-1,-1.042516136E1,1.002817154E-1
4.012473233E0,9.933114648E-1,-1.074297810E1,5.876903534E-1
4.022491514E0,5.391598344E-1,-9.773460388E0,5.978665352E-1
4.032513545E0,4.092970490E-2,-9.932015419E0,-7.907552719E-1
4.042538962E0,2.804123163E-1,-1.057592106E1,-2.759513378E0
4.052567347E0,-1.199117005E-1,-1.104139328E1,-4.641305923E0
4.062598077E0,-2.719288468E-1,-1.113202572E1,-7.499446392E0
4.072630472E0,1.542026997E-1,-1.209008694E1,-1.100261497E1
4.082663858E0,1.040199161E0,-1.300964642E1,-1.280220985E1
4.092697504E0,1.544320345E0,-1.281988525E1,-1.336770058E1
4.102722556E0,1.180457115E0,-1.072190380E1,-1.175169373E1
4.112739587E0,-5.477201939E-1,-9.046430588E0,-8.624957085E0
4.122754900E0,-1.569012403E0,-8.117493629E0,-6.075201988E0
4.132770264E0,-1.513600945E0,-7.762238026E0,-3.835117340E0
4.142785733E0,-1.006110787E0,-7.813972950E0,-2.019955158E0
4.152801410E0,-2.436898053E-1,-8.091268539E0,-1.014730930E0
4.162817243E0,2.960761786E-1,-8.356708527E0,-4.317040443E-1
4.172833337E0,7.194673419E-1,-8.457653046E0,-4.586987495E-1
4.182849639E0,8.201838732E-1,-8.594105721E0,-9.686260223E-1
4.192866150E0,5.838777423E-1,-8.534416199E0,-1.335189819E0
4.202844327E0,1.648619771E-1,-8.276723862E0,-1.894881725E0
4.212824743E0,-1.043200493E-2,-7.903296471E0,-2.005935907E0
4.222808025E0,-2.564321458E-1,-7.694516659E0,-2.376945972E0
4.232797191E0,-3.156966567E-1,-7.526847839E0,-3.090085506E0
4.242793129E0,-4.350517988E-1,-7.204731941E0,-3.375049591E0
4.252796410E0,-6.837024093E-1,-6.682824612E0,-3.172355175E0
4.262807243E0,-3.911305964E-1,-6.022830486E0,-2.529348373E0
4.272825577E0,-1.262207627E-1,-5.260081291E0,-2.248347998E0
4.282851045E0,3.016242981E-1,-4.542764664E0,-2.716174841E0
4.292883025E0,6.027152538E-1,-3.625992775E0,-3.859396458E0
4.302920629E0,2.200565040E-1,-2.769730568E0,-5.923239708E0
4.312962816E0,1.165077388E-1,-1.785861492E0,-7.452538967E0
4.323006566E0,3.310228586E-1,-1.139427662E0,-7.528237820E0
4.333052556E0,-1.130310148E-1,-1.669788361E-2,-5.681020737E0
4.343099483E0,-5.482448936E-1,1.545620918E0,-6.698069572E-1
4.353141150E0,-2.030035973E0,2.673498154E0,4.617841721E0
4.363156514E0,-3.601930618E0,4.053173065E0,6.303834438E0
4.373171931E0,-3.846224308E0,5.948426247E0,2.614360332E0
4.383187452E0,-2.129478216E0,6.511575699E0,-1.046698570E0
4.393203129E0,7.825088501E-1,7.056910992E0,-1.838531971E0
4.403218962E0,3.947305441E0,7.883225441E0,5.082535744E-1
4.413213441E0,6.726060867E0,8.705594063E0,5.646798134E0
4.423208077E0,5.877962112E0,1.224297142E1,1.567242241E1
4.433204431E0,2.484331846E0,1.661332130E1,2.443450165E1
4.443204379E0,-8.882281184E-1,2.010036087E1,2.661779022E1
4.453207347E0,-1.923405647E0,2.030512619E1,2.183759117E1
4.463214900E0,-8.583264351E-1,1.867466927E1,1.437826157E1
4.473227139E0,7.952827215E-2,1.738214493E1,9.276752472E0
4.483244066E0,-9.713675380E-1,1.731283569E1,7.398087502E0
4.493265525E0,-1.839490891E0,1.735866737E1,1.005888462E1
4.503291150E0,-2.684064388E0,1.707427406E1,1.485431480E1
4.513320368E0,-3.991028547E0,1.680933571E1,1.813959122E1
4.523351462E0,-4.613104343E0,1.620957565E1,1.868935013E1
4.533383077E0,-4.114676952E0,1.527434921E1,1.648305893E1
4.543416410E0,-3.275955200E0,1.347800732E1,1.262873173E1
4.553450785E0,-1.799114466E0,1.167531776E1,9.269468307E0
4.563485368E0,2.255446017E-1,9.909016609E0,6.540464878E0
4.573507868E0,1.745080113E0,8.344003677E0,4.010360241E0
4.583524587E0,4.277374744E0,7.318714142E0,1.896058083E0
4.593541306E0,4.324366093E0,6.862484932E0,4.665555954E-1
4.603558025E0,3.646480083E0,7.510416031E0,6.901769638E-1
4.613574743E0,1.731200814E0,7.757057190E0,2.110574722E0
4.623591462E0,5.486121178E-1,7.592653275E0,3.944604158E0
4.633563858E0,-1.147134304E0,6.379462242E0,5.768027306E0
4.643539847E0,-2.201538563E0,4.858572960E0,6.761501312E0
4.653520837E0,-2.684645176E0,2.673919678E0,5.622307777E0
4.663508129E0,-2.901813269E0,3.778553009E-1,3.048357725E0
4.673502608E0,-2.608760834E0,-1.472211838E0,-3.488442898E-1
4.683504847E0,-1.407618046E0,-3.387002468E0,-2.547478437E0
4.693515160E0,-8.321907520E-1,-5.407862186E0,-3.934972286E0
4.703531670E0,-3.462910652E-2,-6.651536465E0,-4.850465775E0
4.713554847E0,9.642239809E-1,-7.757010460E0,-5.238223076E0
4.723585212E0,1.071137309E0,-9.051443100E0,-5.449935436E0
4.733620160E0,7.523634434E-1,-1.009175873E1,-5.198664188E0
4.743660577E0,5.020217299E-1,-1.123861980E1,-4.565023422E0
4.753705316E0,4.246674776E-1,-1.224969292E1,-3.689408302E0
4.763753077E0,2.413422763E-1,-1.292154121E1,-2.653715611E0
4.773802504E0,-3.477736712E-1,-1.321439266E1,-2.062491655E0
4.783852191E0,-8.261175752E-1,-1.315952492E1,-1.586606979E0
4.793876097E0,-6.427956223E-1,-1.284459019E1,-1.552341938E0
4.803893025E0,-9.130046517E-2,-1.303458881E1,-2.012815952E0
4.813909535E0,3.242806792E-1,-1.315379047E1,-2.555795193E0
4.823926045E0,8.267734647E-1,-1.336465263E1,-2.794987440E0
4.833916045E0,6.926674247E-1,-1.351447582E1,-3.508036137E0
4.843908181E0,2.506488860E-1,-1.331668758E1,-4.631728172E0
4.853903337E0,-7.065507770E-2,-1.285271072E1,-5.504205704E0
4.863902243E0,-3.171446621E-1,-1.234686470E1,-6.040380001E0
4.873905472E0,-5.865495801E-1,-1.198835182E1,-6.725053787E0
4.883913441E0,-7.977668643E-1,-1.121998501E1,-7.078427792E0
4.893926254E0,-5.993164778E-1,-1.084420300E1,-7.026687622E0
4.903943962E0,-1.867213845E-1,-1.061482048E1,-6.546566963E0
4.913966254E0,3.661324382E-1,-1.034357929E1,-5.355103016E0
4.923992712E0,6.297869682E-1,-9.843282700E0,-3.719542503E0
4.934021722E0,6.736464500E-1,-9.124618530E0,-1.641677856E0
4.944053806E0,7.486502528E-1,-8.459215164E0,6.853263378E-1
4.954087087E0,5.958665609E-1,-7.996154308E0,2.575309038E0
4.964121931E0,4.747079015E-1,-7.693975925E0,3.957983255E0
4.974157608E0,3.494674563E-1,-7.596233845E0,4.278541565E0
4.984193337E0,2.327830344E-1,-7.633724213E0,3.677633286E0
4.994211097E0,1.546022892E-1,-7.561329365E0,2.481414557E0
5.004227556E0,2.644146681E-1,-7.494629860E0,1.027092218E0
5.014244014E0,5.122670531E-1,-7.634075642E0,-6.179568768E-1
5.024260472E0,6.180604100E-1,-7.898187637E0,-1.839944005E0
5.034276931E0,4.825312793E-1,-8.106929779E0,-2.199385166E0
5.044293441E0,2.569304705E-1,-7.723994255E0,-2.343049526E0
5.054284222E0,1.483404189E-1,-7.816792965E0,-2.448353052E0
5.064277087E0,3.226320744E-1,-7.734967232E0,-2.206917286E0
5.074271827E0,5.707789063E-1,-7.523069382E0,-1.749797821E0
5.084270316E0,6.812837720E-1,-7.269332409E0,-1.449194431E0
5.094273181E0,7.971767187E-1,-6.731991768E0,-1.523375988E0
5.104280837E0,8.896532655E-1,-5.860398293E0,-1.957681298E0
5.114293389E0,1.028814673E0,-4.712157249E0,-3.474454641E0
5.124310837E0,1.043984056E0,-3.131837845E0,-5.646060944E0
5.134332920E0,9.120939970E-1,-1.603268147E0,-8.233661652E0
5.144357452E0,4.411581159E-2,2.125196457E-1,-1.044206333E1
5.154384743E0,-7.798229456E-1,1.570138931E0,-1.120824051E1
5.164415368E0,-9.947755933E-2,3.152398109E0,-6.900385380E0
5.174448650E0,6.389262676E-1,5.252989769E0,1.864147186E-1
5.184481983E0,-4.707043171E-1,7.792665482E0,6.037397385E0
5.194501202E0,-1.814295411E0,9.590747833E0,8.838848114E0
5.204517920E0,-1.291884422E0,9.778471947E0,9.007978439E0
5.214535316E0,1.998893321E-1,9.734405518E0,7.110304356E0
5.224554431E0,7.374894023E-1,1.063390255E1,5.142655373E0
5.234575056E0,-2.897214293E-1,1.215032673E1,4.952802658E0
5.244584900E0,-1.692431211E0,1.315987206E1,5.299765110E0
5.254595681E0,-2.709346771E0,1.368388844E1,6.419021606E0
5.264608754E0,-2.687032223E0,1.385560322E1,7.915512562E0
5.274623025E0,-2.254124165E0,1.406091022E1,8.855487823E0
5.284639691E0,-2.350933075E0,1.409619331E1,9.349040031E0
5.294657556E0,-2.772122622E0,1.385394287E1,9.479895592E0
5.304677556E0,-3.414805889E0,1.344250870E1,8.260976791E0
5.314698389E0,-3.550448418E0,1.383036232E1,7.262472630E0
5.324720993E0,-3.214976311E0,1.362834072E1,7.029180527E0
5.334743962E0,-2.851115704E0,1.386237431E1,8.515193939E0
5.344752295E0,-2.424094200E0,1.406577969E1,1.085077953E1
5.354761670E0,-1.430925012E0,1.370542908E1,1.251752281E1
5.364773389E0,-1.767059565E-1,1.288940144E1,1.275893211E1
5.374786462E0,1.232966542E0,1.180507946E1,1.226548386E1
5.384802087E0,1.700419545E0,1.033506584E1,1.060562897E1
5.394819118E0,1.376421571E0,8.991037369E0,8.036025047E0
5.404838545E0,8.406509161E-1,7.915560722E0,5.258973598E0
5.414859118E0,3.591161668E-1,7.147570610E0,2.724762917E0
5.424881775E0,6.078784466E-1,6.298323631E0,8.135271072E-1
5.434905056E0,-1.364702284E-1,5.934555054E0,-4.309453964E-1
5.444928650E0,-3.939617872E-1,5.346127510E0,-1.396324635E0
5.454936462E0,-8.020686507E-1,4.394856453E0,-2.396138191E0
5.464946358E0,-9.629726410E-1,3.038819313E0,-3.017606497E0
5.474957504E0,-6.232649088E-1,1.387879372E0,-3.175109386E0
5.484971202E0,-3.133111298E-1,-2.536621094E-1,-3.781916857E0
5.494986306E0,-5.805072784E-1,-1.632196426E0,-4.370296001E0
5.505003910E0,-1.162711859E0,-2.546148300E0,-4.764430523E0
5.515022816E0,-1.453912258E0,-3.076500893E0,-4.950810909E0
5.525043962E0,-1.661686897E0,-3.672410965E0,-4.631970406E0
5.535065993E0,-1.848696232E0,-4.507070065E0,-3.464699507E0
5.545088650E0,-2.021591663E0,-5.363849163E0,-1.734652400E0
5.555103910E0,-1.826355457E0,-6.477739334E0,2.632441521E-1
5.565120993E0,-1.007205367E0,-7.882680416E0,1.780841827E0
5.575138702E0,-7.069244981E-2,-9.139410019E0,2.553765535E0
5.585158077E0,7.608894706E-1,-1.016638374E1,2.556550503E0
5.595177868E0,1.472630501E0,-1.102202225E1,1.377709389E0
5.605199014E0,1.735480070E0,-1.162702465E1,-5.987405777E-1
5.615220212E0,1.453117728E0,-1.168889236E1,-2.993293285E0
5.625242347E0,1.104768634E0,-1.172827339E1,-5.538844585E0
5.635255525E0,6.850647926E-1,-1.210191631E1,-8.202432632E0
5.645269952E0,4.648905396E-1,-1.229621887E1,-1.019107246E1
5.655271358E0,4.938455820E-1,-1.212201977E1,-1.122395515E1
5.665273337E0,5.050227046E-1,-1.188999557E1,-1.108917618E1
5.675276462E0,3.993171453E-1,-1.151976776E1,-9.580255508E0
5.685281358E0,2.310796082E-1,-1.155410957E1,-6.871815681E0
5.695289014E0,-6.290691346E-2,-1.101140785E1,-3.765223026E0
5.705298962E0,-3.024087548E-1,-1.056274891E1,-8.402326107E-1
5.715312087E0,-2.578530312E-1,-1.028555298E1,1.404836655E0
5.725329483E0,1.058388203E-1,-1.015092659E1,2.504545450E0
5.735349900E0,4.431348145E-1,-1.018460655E1,2.251766443E0
5.745374118E0,7.141428590E-1,-1.018897629E1,1.088680267E0
5.755399952E0,9.211754203E-1,-1.006019497E1,-4.593396187E-1
5.765428702E0,9.503618479E-1,-9.957172394E0,-2.036303043E0
5.775458702E0,8.744615316E-1,-9.934326172E0,-3.107033253E0
5.785490472E0,7.126885056E-1,-9.869979858E0,-3.761063576E0
5.795522243E0,6.525565386E-1,-9.805970192E0,-4.037481785E0
5.805554535E0,6.463212371E-1,-9.852176666E0,-3.774814844E0
5.815556670E0,5.106126666E-1,-9.889535904E0,-3.158059835E0
5.825560420E0,9.058821015E-3,-9.775688171E0,-2.136443853E0
5.835565160E0,-5.129120350E-1,-9.388882637E0,-6.031746864E-1
5.845572452E0,-5.954088569E-1,-8.886581421E0,6.787245274E-1
5.855581462E0,-4.214543402E-1,-8.363245964E0,9.267866611E-1
5.865593545E0,-1.009812430E-1,-7.466326714E0,-1.115937233E-1
5.875607660E0,3.412558734E-1,-6.161550522E0,-2.371728182E0
5.885624900E0,1.031484962E0,-4.886188984E0,-4.867026329E0
5.895644066E0,1.525770307E0,-3.781998158E0,-7.674736023E0
5.905666045E0,1.572574019E0,-2.656922340E0,-9.900444984E0
5.915689431E0,1.663106441E0,-1.468379498E0,-9.552639008E0
5.925715004E0,1.385820150E0,-7.232456207E-1,-6.993013382E0
5.935741254E0,4.703141451E-1,9.107494354E-1,-1.140632629E0
5.945768910E0,-1.321052313E0,3.022761345E0,5.388103485E0
5.955791097E0,-2.894527912E0,5.057587624E0,9.556299210E0
5.965814118E0,-2.857836962E0,5.988477707E0,8.907802582E0
5.975824900E0,-6.360153556E-1,6.007186890E0,5.321299553E0
5.985836983E0,1.391717076E0,7.591108322E0,2.133983612E0
5.995849431E0,2.302859068E0,9.542424202E0,2.087626934E0
6.005863441E0,1.815833092E0,1.054738998E1,3.534217358E0
6.015877972E0,1.549453735E0,1.189945889E1,6.383048534E0
6.025894222E0,3.394461870E-1,1.358149910E1,9.547626495E0
6.035911045E0,-1.445284963E0,1.479713440E1,1.307774544E1
6.045929483E0,-2.367484808E0,1.508561897E1,1.521736717E1
6.055948337E0,-2.862892866E0,1.518538094E1,1.546660614E1
6.065968597E0,-3.347215176E0,1.545325470E1,1.377504921E1
6.075988962E0,-3.296580315E0,1.564908123E1,1.060449982E1
6.086010368E0,-2.762477160E0,1.533911228E1,8.933998108E0
6.096025889E0,-2.701226711E0,1.469679165E1,8.299276352E0
6.106042556E0,-2.614201307E0,1.432961178E1,1.009442711E1
6.116059222E0,-2.251769304E0,1.335233402E1,1.327897549E1
6.126076983E0,-1.262009978E0,1.194325924E1,1.583142853E1
6.136092868E0,3.969906271E-1,1.046203804E1,1.702402687E1
6.146109847E0,1.725217104E0,8.608890533E0,1.622821236E1
6.156108702E0,1.909328938E0,7.203384399E0,1.332879257E1
6.166108233E0,1.329581976E0,6.576416969E0,9.121638298E0
6.176109118E0,7.237481475E-1,6.221948624E0,5.293197155E0
6.186112035E0,2.031635344E-1,6.070739746E0,2.339237690E0
6.196118077E0,-7.810315490E-2,6.017765045E0,9.210944176E-1
6.206126827E0,-4.588198662E-2,5.799146652E0,1.097482204E0
6.216139170E0,1.683220416E-1,5.536996841E0,2.430392265E0
6.226156254E0,1.564198136E-1,5.045431137E0,3.848802090E0
6.236176775E0,3.773790002E-1,4.403297424E0,5.019053936E0
6.246201566E0,1.061704159E0,3.600966454E0,5.293735027E0
6.256229014E0,1.395412326E0,2.651090622E0,4.432378292E0
6.266257920E0,1.145667911E0,1.761077881E0,3.276756287E0
6.276288441E0,8.367019296E-1,1.115532875E0,1.448435783E0
6.286321045E0,7.960038781E-1,4.408330917E-1,-5.825181007E-1
6.296343181E0,6.299099326E-1,-2.730293274E-1,-2.516057730E0
6.306366931E0,1.602428108E-1,-9.653749466E-1,-4.104250908E0
6.316390785E0,-5.079725981E-1,-1.524501801E0,-4.977393150E0
6.326415577E0,-1.153887272E0,-2.218646049E0,-5.181529999E0
6.336427868E0,-1.320778251E0,-3.154595852E0,-4.790673256E0
6.346441410E0,-1.318620443E0,-4.018621445E0,-4.364340782E0
6.356455160E0,-9.752455950E-1,-5.018312454E0,-4.274614811E0
6.366469275E0,-6.489391923E-1,-6.048550606E0,-4.375540733E0
6.376477191E0,-3.117929995E-1,-6.955860138E0,-3.950224161E0
6.386487243E0,1.207057983E-1,-8.316571236E0,-3.398759842E0
6.396498493E0,4.823428392E-1,-9.211281776E0,-2.447896719E0
6.406512191E0,5.814234614E-1,-9.751055717E0,-1.622405052E0
6.416527295E0,6.373710632E-1,-1.003215599E1,-1.097956419E0
6.426544900E0,7.783857584E-1,-1.021533871E1,-1.188776255E0
6.436563806E0,8.709820509E-1,-1.053075314E1,-1.915816307E0
6.446584952E0,8.338904381E-1,-1.089530182E1,-2.854781866E0
6.456606254E0,8.788611889E-1,-1.109557056E1,-3.891444683E0
6.466628233E0,9.351974130E-1,-1.121345901E1,-5.174069881E0
6.476644691E0,1.074032903E0,-1.138684559E1,-6.415198326E0
6.486662920E0,7.747819424E-1,-1.125633240E1,-7.420708656E0
6.496681722E0,4.858711362E-1,-1.071785164E1,-7.622994423E0
6.506702087E0,4.072722793E-2,-9.893180847E0,-7.605663300E0
6.516722712E0,-8.149175644E-1,-9.258992195E0,-6.755464077E0
6.526744483E0,-8.792537451E-1,-9.002582550E0,-5.332361221E0
6.536762920E0,-7.942887545E-1,-9.017707825E0,-3.273751259E0
6.546782347E0,-4.554167688E-1,-8.990472794E0,-1.337910414E0
6.556796410E0,-1.594599783E-1,-8.967988968E0,1.020445108E0
6.566811618E0,-4.305309057E-2,-8.959191322E0,2.473770857E0
6.576812243E0,1.325881779E-1,-9.070109367E0,2.501145124E0
6.586815264E0,4.045738280E-1,-9.419883728E0,1.248535872E0
6.596820056E0,6.653370857E-1,-9.743186951E0,-3.598563671E-1
6.606828129E0,7.765145302E-1,-9.850029945E0,-2.056525707E0
6.616838597E0,6.542203426E-1,-9.739993095E0,-3.492564917E0
6.626852764E0,4.727030396E-1,-9.630795479E0,-4.499361038E0
6.636869431E0,4.451037943E-1,-9.410722733E0,-5.332298279E0
6.646889587E0,5.220898390E-1,-9.021206856E0,-5.681614876E0
6.656911202E0,5.637809038E-1,-8.362619400E0,-5.797049999E0
6.666934014E0,4.498277307E-1,-7.590366364E0,-5.535915852E0
6.676957712E0,4.831942916E-1,-6.792722702E0,-5.170637131E0
6.686983806E0,6.047017574E-1,-5.780335903E0,-4.184730530E0
6.697010733E0,6.874667406E-1,-4.490250111E0,-3.607276440E0
6.707030004E0,7.108515501E-1,-3.049598217E0,-4.109343529E0
6.717046775E0,5.817284584E-1,-1.988429070E0,-4.590978146E0
6.727065316E0,6.380682588E-1,-1.626027584E0,-5.601104736E0
6.737084379E0,6.494439840E-1,-1.277585983E0,-6.644736290E0
6.747105004E0,4.277846515E-1,-1.780347824E-1,-7.291328430E0
6.757113806E0,7.893207073E-1,1.696261406E0,-5.418508530E0
6.767124691E0,4.821249545E-1,4.204376221E0,-2.805390120E0
6.777136045E0,-4.782857895E-1,6.022894859E0,6.754295826E-1
6.787149847E0,-6.120392084E-1,6.519043922E0,3.106056452E0
6.797165004E0,6.101825237E-1,6.668415070E0,5.383372784E0
6.807182608E0,1.448334217E0,7.858833313E0,6.642476082E0
6.817201462E0,9.138842821E-1,9.479397774E0,7.380074024E0
6.827222504E0,2.477899939E-1,1.055934811E1,7.860646248E0
6.837244379E0,-3.793601692E-1,1.106269169E1,8.433712006E0
6.847264587E0,-1.375326276E0,1.193115807E1,9.574441910E0
6.857281358E0,-1.800989628E0,1.329567719E1,1.227252007E1
6.867299952E0,-1.891464233E0,1.409821415E1,1.509868622E1
6.877319066E0,-1.850600004E0,1.428901386E1,1.620242500E1
6.887331618E0,-1.824979305E0,1.458421612E1,1.574007034E1
6.897344327E0,-2.422102690E0,1.501345539E1,1.489577293E1
6.907357347E0,-2.792142630E0,1.517014790E1,1.443922615E1
6.917370785E0,-2.553131342E0,1.473781967E1,1.388477516E1
6.927386566E0,-2.252787828E0,1.418163490E1,1.336717701E1
6.937403545E0,-2.102905035E0,1.345595932E1,1.283147621E1
6.947422764E0,-1.807787299E0,1.229542637E1,1.217018318E1
6.957442243E0,-8.541861773E-1,1.077315235E1,1.146988106E1
6.967461879E0,8.079063892E-2,9.212213516E0,1.013652134E1
6.977481514E0,8.789089918E-1,7.763803482E0,8.613403320E0
6.987501150E0,1.555058479E0,6.457869530E0,7.439821243E0
6.997521254E0,1.947566271E0,5.385127068E0,6.448005676E0
7.007542816E0,1.506256819E0,4.669706345E0,4.758135319E0
7.017564483E0,3.927509785E-1,3.936457634E0,2.281173706E0
7.027566254E0,4.407146573E-1,3.451021194E0,5.063996315E-1
7.037568597E0,-3.010392189E-2,2.418814659E0,-1.246068954E0
7.047572087E0,-4.408319890E-1,1.431634903E0,-2.777373075E0
7.057577191E0,-8.070358038E-1,3.805580139E-1,-3.643095970E0
7.067586097E0,-9.908204079E-1,-5.688428879E-1,-3.852581024E0
7.077597868E0,-1.077080250E0,-1.328501701E0,-4.044216633E0
7.087611879E0,-1.173691154E0,-2.115336418E0,-4.210920811E0
7.097628181E0,-1.346879005E0,-2.987666607E0,-3.954201460E0
7.107646670E0,-1.426622748E0,-3.962291718E0,-3.594799995E0
7.117667191E0,-1.537936211E0,-5.012004852E0,-3.320566177E0
7.127691306E0,-1.659138083E0,-6.151700020E0,-2.565950155E0
7.137717504E0,-1.543631077E0,-7.287300110E0,-1.438627005E0
7.147746410E0,-1.210205317E0,-8.238524437E0,-8.053112030E-2
7.157775629E0,-7.116860151E-1,-9.052463531E0,1.099112988E0
7.167800837E0,-5.535119772E-2,-9.726896286E0,1.360073090E0
7.177817608E0,7.027538419E-1,-1.020228004E1,8.114714622E-1
7.187834379E0,1.318352342E0,-1.050032234E1,-5.945060253E-1
7.197851150E0,1.611494899E0,-1.070698166E1,-2.480058670E0
7.207867868E0,1.369346976E0,-1.147902679E1,-4.990208626E0
7.217884587E0,1.378465772E0,-1.186409187E1,-6.885701180E0
7.227901306E0,1.304241300E0,-1.197450733E1,-8.590167999E0
7.237918025E0,1.125647306E0,-1.172415733E1,-9.950718880E0
7.247944014E0,9.692762792E-2,-1.097123623E1,-1.079026031E1
7.257954639E0,-4.879108667E-1,-1.002667427E1,-1.024039841E1
7.267967139E0,-3.328987062E-1,-9.384749413E0,-8.715058327E0
7.277979952E0,-9.608808160E-2,-9.397669792E0,-6.338136673E0
7.287993129E0,2.418272048E-1,-9.649568558E0,-3.296183586E0
7.298006775E0,6.205958128E-1,-9.919076920E0,-3.431069851E-1
7.308020993E0,8.127847910E-1,-9.976635933E0,1.099546432E0
7.318035889E0,1.008742332E0,-1.015829086E1,1.613393307E0
7.328053337E0,1.043153167E0,-1.023049927E1,1.035914660E0
7.338071358E0,1.187616467E0,-1.015416908E1,-1.133334398E0
7.348091722E0,7.848684192E-1,-9.833784103E0,-1.580171466E0
7.358112347E0,1.904082149E-1,-9.536861420E0,-1.997138977E0
7.368133077E0,-3.126040101E-2,-9.319865227E0,-3.068089247E0
7.378152816E0,2.666466236E-1,-9.014428139E0,-4.491882801E0
7.388169587E0,4.900752902E-1,-8.636400223E0,-5.570995331E0
7.398186358E0,4.015276432E-1,-8.184792519E0,-5.789823055E0
7.408204900E0,5.296227932E-1,-7.675120354E0,-5.210548878E0
7.418219847E0,9.634172916E-1,-6.980897427E0,-4.473400593E0
7.428234847E0,1.397734284E0,-5.957384109E0,-4.124068260E0
7.438249952E0,1.668977976E0,-4.707884789E0,-4.541854858E0
7.448265368E0,1.487916827E0,-3.486965179E0,-5.392589569E0
7.458280993E0,1.702877998E0,-2.398020744E0,-6.732474327E0
7.468298650E0,1.592104077E0,-1.306323528E0,-8.093713760E0
7.478316462E0,1.125098467E0,-5.854120255E-1,-9.440866470E0
7.488334379E0,1.214900613E0,3.779211044E-1,-9.010264397E0
7.498352347E0,7.962096930E-1,2.283975601E0,-7.157068729E0
7.508370316E0,-6.040293574E-1,4.407369614E0,-4.722239971E0
7.518387452E0,-2.008058786E0,5.806212425E0,-1.194225550E0
7.528406358E0,-2.316887379E0,6.162876129E0,5.406143665E-1
7.538420993E0,-2.376006842E0,6.992867470E0,1.315019131E0
7.548437504E0,-1.679524660E0,9.054652214E0,2.602621078E0
7.558454014E0,-1.755064011E0,1.097584152E1,4.827917099E0
7.568470525E0,-1.974334240E0,1.171509933E1,6.801471233E0
7.578487035E0,-1.463653803E0,1.175827408E1,9.929170609E0
7.588504275E0,-5.998277068E-1,1.197662735E1,1.351464558E1
7.598522868E0,-3.799533546E-1,1.267930794E1,1.745721054E1
7.608543077E0,7.202616334E-2,1.284197044E1,2.061983109E1
7.618555108E0,5.249148607E-2,1.359314156E1,2.200132942E1
7.628567295E0,-2.154376805E-1,1.432416821E1,2.055681038E1
7.638579847E0,-8.953228593E-2,1.502814102E1,1.851375198E1
7.648592920E0,3.154049814E-1,1.510638618E1,1.702479172E1
7.658606618E0,6.480644941E-1,1.433776093E1,1.654603767E1
7.668621045E0,8.705151081E-1,1.303961754E1,1.634633064E1
7.678636254E0,6.460042596E-1,1.138170433E1,1.497784996E1
7.688652295E0,2.793319821E-1,1.007165623E1,1.288893509E1
7.698669170E0,-3.992581367E-2,8.555391312E0,1.117513466E1
7.708686827E0,-4.427723885E-1,7.220767021E0,9.342761993E0
7.718705212E0,-9.540358782E-1,6.292433739E0,7.251794815E0
7.728725993E0,-1.012499571E0,5.528883934E0,5.615551472E0
7.738747139E0,-6.109939218E-1,4.178115845E0,3.630077362E0
7.748770264E0,1.901326478E-1,3.268712997E0,1.901045799E0
7.758789795E0,7.850410938E-1,2.726446152E0,8.675336838E-2
7.768806566E0,9.267943501E-1,2.141055107E0,-1.516141415E0
7.778823337E0,7.680227160E-1,1.532826424E0,-2.841071129E0
7.788841879E0,5.503383875E-1,1.101888657E0,-3.794650793E0
7.798856879E0,2.551284134E-1,5.311527252E-1,-4.583416939E0
7.808873754E0,-9.498918056E-2,-2.989883423E-1,-5.266939163E0
7.818890368E0,-6.694631577E-1,-1.144047737E0,-5.930030823E0
7.828906983E0,-1.075085044E0,-1.893395424E0,-6.391420841E0
7.838923597E0,-1.558427811E0,-2.761273861E0,-6.452672005E0
7.848940212E0,-1.994421482E0,-3.575943947E0,-5.809817314E0
7.858956827E0,-2.042417049E0,-4.402774811E0,-4.500196457E0
7.868975264E0,-1.713394403E0,-5.299497128E0,-2.964928865E0
7.878990993E0,-1.041653872E0,-6.184185982E0,-1.942725897E0
7.889006722E0,-2.836939692E-1,-7.121614456E0,-1.453177929E0
7.899022504E0,5.337204933E-1,-7.783841133E0,-7.246642113E-1
7.909038389E0,1.161797285E0,-9.000174522E0,-8.226711750E-1
7.919054483E0,1.742143631E0,-9.685276985E0,-9.486737251E-1
7.929072556E0,2.061224222E0,-1.048396683E1,-1.656407237E0
7.939090629E0,2.156378984E0,-1.085063648E1,-2.428877115E0
7.949108337E0,1.958988309E0,-1.108449364E1,-2.983677149E0
7.959125108E0,1.527865887E0,-1.131478691E1,-3.665080309E0
7.969141879E0,1.204582214E0,-1.136759472E1,-4.591713905E0
7.979158650E0,8.762980103E-1,-1.087649918E1,-5.524137497E0
7.989177191E0,8.339606524E-1,-1.067064571E1,-6.578438759E0
7.999192191E0,8.565521240E-1,-1.064987087E1,-7.690324783E0
8.009209014E0,1.342524767E0,-1.080168438E1,-8.218633652E0
8.019225733E0,1.552849531E0,-1.088592720E1,-8.020372391E0
8.029242452E0,1.311179876E0,-1.066841030E1,-6.926765919E0
8.039259170E0,7.244415879E-1,-9.929682732E0,-5.577099800E0
8.049276566E0,2.536069155E-1,-9.455125809E0,-4.285541534E0
8.059292764E0,1.647478342E-2,-9.413520813E0,-3.157904625E0
8.069310733E0,-1.032520235E-1,-9.539717674E0,-1.865651608E0
8.079326306E0,-3.000777662E-1,-9.541620255E0,-8.204813004E-1
8.089341879E0,-3.853936195E-1,-9.467613220E0,-4.815266132E-1
8.099357504E0,-3.725404739E-1,-9.446375847E0,-8.229646683E-1
8.109373233E0,-2.773117721E-1,-9.407935143E0,-1.314337730E0
8.119389118E0,-1.744419634E-1,-9.260572433E0,-2.212189198E0
8.129407035E0,2.098177224E-1,-9.234977722E0,-3.028211594E0
8.139425004E0,6.690786481E-1,-9.014570236E0,-3.814927578E0
8.149444795E0,9.302063584E-1,-8.460140228E0,-4.678184032E0
8.159460472E0,9.298237562E-1,-7.736382961E0,-4.996116638E0
8.169476150E0,5.430356264E-1,-6.704528809E0,-5.187865257E0
8.179491879E0,9.358897805E-2,-5.317746639E0,-4.856215477E0
8.189507868E0,-1.221466064E-1,-3.690083981E0,-3.792559624E0
8.199523962E0,-2.227015495E-1,-2.153590679E0,-2.957387447E0
8.209540212E0,-1.919461489E-1,-1.009406567E0,-3.489539385E0
8.219556618E0,-2.471365929E-1,-1.417827606E-1,-4.071146011E0
8.229573181E0,-3.299858570E-1,2.667427063E-3,-4.521662712E0
8.239589900E0,4.570534229E-1,5.989170074E-2,-3.696101665E0
8.249607504E0,1.829805136E0,6.511526108E-1,-2.692345142E0
8.259625212E0,9.206682444E-1,3.152967453E0,-1.789814472E0
8.269644743E0,-1.716955900E0,5.324068069E0,-5.803735256E-1
8.279661722E0,-3.154130459E0,6.031376839E0,4.236679077E-1
8.289678493E0,-2.575637102E0,5.339812279E0,1.051226139E0
8.299695264E0,-1.512098551E0,5.463373184E0,1.674103737E0
8.309712035E0,-4.974135160E-1,6.870048523E0,3.666473866E0
8.319728754E0,-6.822181344E-1,7.801295757E0,6.719726562E0
8.329747295E0,-5.366344452E-1,8.288223267E0,9.554752350E0
8.339762347E0,-4.299677610E-1,8.720746040E0,1.220215511E1
8.349777452E0,-1.201509118E0,9.565582275E0,1.392994976E1
8.359792660E0,-2.153964996E0,1.088670921E1,1.369326210E1
8.369808025E0,-2.804447174E0,1.189244461E1,1.248218155E1
8.379824483E0,-3.299647331E0,1.178748512E1,1.105986214E1
8.389842920E0,-3.449974298E0,1.160776138E1,9.834127426E0
8.399861410E0,-3.616786480E0,1.148561096E1,8.739334106E0
8.409880577E0,-3.682757854E0,1.192973232E1,9.450655937E0
8.419896514E0,-3.437491417E0,1.179792500E1,1.145188046E1
8.429912452E0,-2.554918528E0,1.078144836E1,1.450221062E1
8.439928441E0,-1.167733312E0,9.851400375E0,1.670242500E1
8.449945212E0,-1.311223507E-1,9.205877304E0,1.837205124E1
8.459962035E0,2.904343605E-1,8.459150314E0,1.839423180E1
8.469980681E0,4.243241549E-1,7.665305138E0,1.699312592E1
8.479997139E0,1.969054937E-1,6.726440430E0,1.428591537E1
8.490013597E0,-1.038552523E-1,6.049121857E0,1.096939659E1
8.500030056E0,-2.180186510E-1,5.837606430E0,7.579579830E0
8.510046514E0,-1.799163818E-1,6.077084541E0,4.752784729E0
8.520062972E0,-4.904477596E-1,5.689075470E0,1.705549717E0
8.530081254E0,-2.848752737E-1,6.069025993E0,-2.291183472E-1
8.540097764E0,-1.778603792E-1,5.907599449E0,-1.425853968E0
8.550114275E0,-1.844525337E-2,5.691721916E0,-1.576971769E0
8.560130785E0,4.468429089E-2,5.436070442E0,-1.249331713E0
8.570147295E0,-2.068259716E-1,4.853890419E0,-7.954699993E-1
8.580163806E0,-3.867648244E-1,3.536231995E0,-5.069096088E-1
8.590182139E0,-4.488179684E-1,2.629088402E0,-1.206851006E-1
8.600198441E0,-6.512348056E-1,1.579123497E0,-2.577853203E-1
8.610216514E0,-8.191804290E-1,6.052827835E-1,-5.745580196E-1
8.620231983E0,-1.203273416E0,-3.838596344E-1,-1.055715084E0
8.630247504E0,-1.556543827E0,-1.230551720E0,-1.686886311E0
8.640263077E0,-1.386821032E0,-2.183108330E0,-2.296779871E0
8.650278754E0,-7.322239280E-1,-3.283274174E0,-2.905786991E0
8.660294587E0,1.641792655E-1,-4.262921810E0,-3.379566193E0
8.670310629E0,9.352779984E-1,-5.274880409E0,-4.120417595E0
8.680326879E0,1.175253272E0,-6.422971725E0,-4.815324783E0
8.690343337E0,9.581042528E-1,-7.494864464E0,-5.149099350E0
8.700360004E0,8.095197678E-1,-8.475971222E0,-4.928481102E0
8.710376879E0,6.622657776E-1,-9.311126709E0,-4.240897655E0
8.720393962E0,5.532015562E-1,-9.966091156E0,-3.522875309E0
8.730413025E0,4.794940948E-1,-1.046422195E1,-3.104432344E0
8.740432087E0,6.310430765E-1,-1.056657028E1,-2.558686256E0
8.750450056E0,1.025405288E0,-1.070344543E1,-2.249163389E0
8.760466827E0,1.275887609E0,-1.097668648E1,-2.647845745E0
8.770483597E0,1.534686923E0,-1.131903934E1,-3.621678114E0
8.780500368E0,1.703010917E0,-1.166062069E1,-4.780819416E0
8.790518962E0,1.951825976E0,-1.176740265E1,-5.737270355E0
8.800533910E0,2.153789043E0,-1.181070614E1,-6.706797600E0
8.810550681E0,9.490545392E-1,-1.115817738E1,-7.892064571E0
8.820567452E0,9.620682001E-1,-1.011392784E1,-7.833603859E0
8.830584222E0,8.883488774E-1,-9.786159515E0,-7.679307938E0
8.840600993E0,5.989285707E-1,-9.825962067E0,-7.098100662E0
8.850617764E0,1.320185661E-1,-9.532415390E0,-6.585760117E0
8.860634535E0,-3.926721811E-1,-9.108213425E0,-5.700140476E0
8.870653129E0,-5.809944868E-1,-9.101535797E0,-3.860894680E0
8.880668129E0,-1.096164584E-1,-9.475795746E0,-2.396449327E0
8.890683181E0,1.088380218E0,-1.023442936E1,-3.750214577E-1
8.900698337E0,1.908559561E0,-1.102339745E1,1.458503723E0
8.910713650E0,1.957868099E0,-1.131413078E1,1.219045401E0
8.920729170E0,1.420639038E0,-1.042098045E1,9.895000458E-1
8.930746722E0,8.890665174E-1,-9.874889374E0,-2.167091370E-1
8.940764431E0,5.898438692E-1,-9.668415070E0,-1.110781670E0
8.950782243E0,4.042201936E-1,-9.390242577E0,-1.396467447E0
8.960800108E0,5.896223783E-1,-9.421890259E0,-2.227933645E0
8.970817972E0,1.101060271E0,-9.328397751E0,-3.212364197E0
8.980835837E0,1.279382229E0,-8.496089935E0,-3.664170742E0
8.990855420E0,1.352901459E0,-7.253363132E0,-4.340014458E0
9.000869483E0,1.114679813E0,-5.695816994E0,-5.223368645E0
9.010885420E0,8.303043842E-1,-3.630331039E0,-5.633566856E0
9.020901410E0,3.151440620E-1,-1.641240597E0,-5.620422363E0
9.030917452E0,-2.076501846E-1,-4.018621445E-1,-5.666110039E0
9.040933597E0,-2.175743580E-1,-1.914873123E-1,-5.927096367E0
9.050950577E0,5.298892856E-1,-7.217397690E-1,-5.876130581E0
9.060967660E0,1.899234295E0,-8.049802780E-1,-4.742695332E0
9.070986566E0,3.809626102E0,1.933689117E-1,-2.169018507E0
9.081003702E0,3.090944767E0,2.393605232E0,8.549854755E-1
9.091020472E0,5.945417285E-1,4.526560783E0,1.732732296E0
9.101037243E0,-1.429186463E0,5.175679207E0,3.137000084E0
9.111054014E0,-1.506237149E0,5.311554909E0,2.961526871E0
9.121070785E0,-1.394319057E0,6.826430321E0,6.829123497E-1
9.131087556E0,-1.631069422E0,8.797204018E0,-2.857155800E-1
9.141104431E0,-2.049815178E0,9.394026756E0,2.463612556E-1
9.151121150E0,-1.906533360E0,9.639865875E0,2.410032749E0
9.161137868E0,-2.026325703E0,9.543015480E0,6.640777588E0
9.171154587E0,-2.899279118E0,9.922668457E0,1.116456413E1
9.181171306E0,-2.943113089E0,1.040375233E1,1.445896721E1
9.191188702E0,-3.418450832E0,1.072683716E1,1.728578568E1
9.201205056E0,-3.986756325E0,1.105652618E1,1.884573364E1
9.211221410E0,-4.023966789E0,1.129719257E1,2.019857216E1
9.221237764E0,-3.496974230E0,1.088821411E1,2.115915680E1
9.231254170E0,-3.368563175E0,1.262168884E1,2.442738533E1
9.241270629E0,-3.096283436E0,1.319113445E1,2.581497765E1
9.251287868E0,-1.835359812E0,1.247283363E1,2.530485725E1
9.261305212E0,-8.424559236E-1,1.134211540E1,2.293260765E1
9.271324327E0,-3.516254425E-1,1.003774452E1,1.927386856E1
9.281339327E0,5.776395798E-1,8.742831230E0,1.663879776E1
9.291354379E0,-8.375532627E-1,6.811643600E0,1.304427719E1
9.301369535E0,-1.202002525E0,6.221233845E0,1.086626244E1
9.311384847E0,-1.934576869E0,5.806419373E0,8.761293411E0
9.321400368E0,-2.310057640E0,5.423081398E0,7.141159534E0
9.331416150E0,-1.965317249E0,5.298062325E0,5.970677376E0
9.341432347E0,-1.462386608E0,5.337020874E0,5.047792912E0
9.351448858E0,-5.681076050E-1,5.126686096E0,4.491394997E0
9.361465681E0,4.132151604E-3,4.488923073E0,4.580271721E0
9.371482816E0,-3.527652025E-1,3.430229187E0,3.868109703E0
9.381500212E0,-8.469450474E-2,2.744467735E0,3.302259445E0
9.391518545E0,-3.889710903E-1,1.313060760E0,1.909192562E0
9.401537087E0,-5.216946602E-1,1.514673233E-1,-2.778730392E-1
9.411557504E0,-6.765046120E-1,-8.893184662E-1,-2.584836960E0
9.421574275E0,-1.043856502E0,-1.827914715E0,-4.631083012E0
9.431591045E0,-1.110817671E0,-2.712205410E0,-6.308634758E0
9.441607816E0,-1.026045918E0,-3.630247116E0,-7.708726406E0
9.451625264E0,1.525545120E-2,-5.427116394E0,-8.281326294E0
9.461642764E0,3.286228180E-1,-6.970998764E0,-8.740579605E0
9.471661931E0,2.861739397E-1,-8.185805321E0,-8.019488335E0
9.481674952E0,-3.618927002E-1,-8.520116806E0,-7.198822975E0
9.491688077E0,-1.555466652E-1,-9.584657669E0,-5.721941948E0
9.501701462E0,4.239355326E-1,-1.080146790E1,-3.920659065E0
9.511715264E0,1.048798323E0,-1.163407326E1,-1.696291804E0
9.521744118E0,1.469917297E0,-1.198198032E1,1.306617260E-1
9.531774170E0,1.845484614E0,-1.195179749E1,7.167022228E-1
9.541778337E0,2.236817360E0,-1.186797333E1,-1.716015339E-1
9.551782868E0,2.448973179E0,-1.221587181E1,-2.163922548E0
9.561788233E0,2.274435520E0,-1.246669579E1,-4.031460762E0
9.571794847E0,1.998850822E0,-1.255739021E1,-5.876192093E0
9.581803077E0,1.671213388E0,-1.229240227E1,-7.130138397E0
9.591815004E0,1.235007644E0,-1.207422066E1,-8.293491364E0
9.601830681E0,1.416344404E0,-1.202103424E1,-8.831040382E0
9.611850004E0,1.534424305E0,-1.218243790E1,-9.066148758E0
9.621870941E0,1.265113831E0,-1.158851337E1,-8.663768768E0
9.631893233E0,9.067236781E-1,-1.136572838E1,-7.484074116E0
9.641916618E0,5.360348821E-1,-1.129878902E1,-6.312828541E0
9.651940785E0,4.026145339E-1,-1.111506844E1,-4.823716164E0
9.661965420E0,6.947014332E-1,-1.107379532E1,-2.965480089E0
9.671990160E0,1.129891872E0,-1.133469009E1,-7.184504271E-1
9.682010681E0,1.379020214E0,-1.138210773E1,6.988379955E-1
9.692027452E0,1.532609344E0,-1.139375496E1,8.846471310E-1
9.702044222E0,1.784915686E0,-1.131637383E1,6.072931290E-1
9.712060993E0,1.912572145E0,-1.107044029E1,2.785978317E-1
9.722080264E0,2.060094357E0,-1.096251011E1,-3.911850452E-1
9.732101097E0,2.066690922E0,-1.083768177E1,-8.974826336E-1
9.742111358E0,1.752529860E0,-1.050318718E1,-9.143991470E-1
9.752121879E0,1.479697704E0,-1.002473736E1,-1.392388344E0
9.762132868E0,1.545804739E0,-9.251917839E0,-1.693154335E0
9.772144535E0,1.064137816E0,-8.418358803E0,-1.947849751E0
9.782161879E0,7.134382129E-1,-7.174235344E0,-2.522134781E0
9.792181618E0,6.903821230E-1,-5.491262913E0,-3.736943007E0
9.802203545E0,1.132898808E0,-4.071925163E0,-5.901547432E0
9.812227347E0,6.382753849E-1,-2.076398373E0,-8.799209595E0
9.822245681E0,-2.045018673E-1,-9.791064262E-1,-1.061917686E1
9.832262452E0,-8.558977842E-1,-1.562851429E0,-1.082743168E1
9.842279222E0,3.866398335E-2,-1.763546944E0,-8.763421059E0
9.852295993E0,1.403849483E0,-7.472991943E-2,-5.799532890E0
9.862314587E0,7.382941246E-1,1.908345222E0,-2.890719414E0
9.872334795E0,-7.500931025E-1,1.672557831E0,2.081755638E0
9.882346410E0,-4.047693014E-1,5.926961899E-1,6.768304825E0
9.892358181E0,5.607237220E-1,2.110957146E0,8.035560608E0
9.902370316E0,7.482832670E-1,4.198345661E0,8.468746185E0
9.912383025E0,-9.254038334E-1,4.671029091E0,8.031572342E0
9.922396514E0,-2.439325333E0,4.754686832E0,8.286746025E0
9.932412556E0,-2.764950514E0,4.809121609E0,9.951372147E0
9.942429327E0,-1.790453792E0,3.933306217E0,1.050228024E1
9.952446775E0,-1.294602036E0,4.324155331E0,1.086919117E1
9.962464847E0,-1.543836355E0,6.383000851E0,1.189589691E1
9.972483493E0,-2.443327188E0,8.551445961E0,1.293881989E1
9.982502608E0,-1.390322208E0,7.794875622E0,1.220259094E1
9.992523910E0,6.153795123E-1,5.222323418E0,1.398701572E1
1.000254714E1,6.336086988E-1,3.819313526E0,1.724732590E1
1.001257188E1,-5.240219235E-1,4.395905018E0,1.864202309E1
1.002258146E1,-2.034725189E0,5.945665836E0,1.938237000E1
1.003259131E1,-2.841107368E0,6.214582443E0,1.747981262E1
