"Time (s)","Linear Acceleration x (m/s^2)","Linear Acceleration y (m/s^2)","Linear Acceleration z (m/s^2)"
7.862072900E-2,0.000000000E0,0.000000000E0,0.000000000E0
8.862687500E-2,-6.699807942E-2,1.738739014E-2,2.695226669E-2
9.863567700E-2,-8.330573142E-2,6.398200989E-3,1.202445030E-1
1.086473960E-1,-8.515164256E-2,-4.414367676E-2,1.299054623E-1
1.186639060E-1,-7.752245665E-2,-9.547042847E-2,8.954381943E-2
1.286832290E-1,-7.066830993E-2,-1.465778351E-1,6.449508667E-2
1.387069790E-1,-3.843769431E-2,-1.991033554E-1,2.527570724E-2
1.487347390E-1,1.767194271E-2,-2.827239037E-1,-1.091387272E-1
1.587659370E-1,7.202434540E-2,-3.822793961E-1,-2.484557629E-1
1.687998430E-1,1.228348911E-1,-5.106091499E-1,-2.054696083E-1
1.788356770E-1,1.585437655E-1,-6.588234901E-1,6.423473358E-3
1.888550000E-1,1.541298926E-1,-7.881526947E-1,1.548800468E-1
1.988760410E-1,1.789106429E-1,-9.152379036E-1,3.107347488E-1
2.088985410E-1,2.133668959E-1,-1.073328972E0,3.084387779E-1
2.189222390E-1,2.437787056E-1,-1.288840294E0,2.177033424E-1
2.289468230E-1,3.200479746E-1,-1.546339512E0,5.267477036E-2
2.389719790E-1,2.556483150E-1,-1.736669540E0,-2.374253273E-1
2.489973960E-1,1.124092489E-1,-1.881217957E0,-5.318367481E-1
2.590201040E-1,5.785286427E-3,-2.013453007E0,-7.927052975E-1
2.690381250E-1,3.282412887E-2,-2.219689846E0,-9.378659725E-1
2.790544790E-1,-4.987835884E-3,-2.396435738E0,-1.073607683E0
2.890269790E-1,-1.745958477E-1,-2.467121601E0,-1.379714727E0
2.990030730E-1,-2.204293460E-1,-2.595737457E0,-1.791466117E0
3.089842710E-1,-1.526579857E-1,-2.654925346E0,-2.077831268E0
3.189717710E-1,3.654927015E-3,-2.720004082E0,-2.076055050E0
3.289665100E-1,-2.831198573E-1,-3.001755238E0,-2.719901800E0
3.389690620E-1,-2.260980904E-1,-2.937311172E0,-2.791293621E0
3.489796870E-1,-1.513686478E-1,-2.917046070E0,-2.764614582E0
3.589983850E-1,-1.633360982E-1,-2.925600290E0,-2.684088707E0
3.690247390E-1,-9.125176072E-2,-2.958170652E0,-2.187739849E0
3.790580730E-1,-4.473614693E-2,-3.015046835E0,-1.924894214E0
3.890956770E-1,1.388531923E-2,-3.137626886E0,-2.016478539E0
3.991383850E-1,1.389592886E-2,-3.184183836E0,-2.044247389E0
4.091849480E-1,-4.398714006E-2,-3.119088650E0,-2.290931702E0
4.192340100E-1,-1.163866222E-1,-3.037712097E0,-2.343101263E0
4.292842710E-1,-2.077223361E-1,-2.893164635E0,-2.478221655E0
4.393296870E-1,-2.224720567E-1,-2.803201199E0,-2.401201487E0
4.493466140E-1,-2.114837021E-1,-2.687046766E0,-2.205576420E0
4.593635410E-1,-2.813290358E-1,-2.311882019E0,-1.664876580E0
4.693804680E-1,-1.506430209E-1,-1.875074625E0,-9.974521995E-1
4.793973960E-1,1.248514801E-1,-1.298271179E0,-2.792011499E-1
4.893884370E-1,1.947173774E-1,-6.688733101E-1,9.924393892E-1
4.993805210E-1,4.548759460E-1,-2.087693214E-1,2.558600664E0
5.093756770E-1,7.900294065E-1,1.364245415E-1,3.894875050E0
5.193746870E-1,9.855204821E-1,6.444611549E-1,4.801058769E0
5.293780730E-1,1.087404847E0,1.180463314E0,4.805108070E0
5.393862500E-1,9.677816033E-1,1.792300224E0,4.363073349E0
5.493993750E-1,7.381975651E-1,2.579792976E0,4.148225784E0
5.594173960E-1,3.675694764E-1,3.457146168E0,3.973481655E0
5.694401040E-1,-2.076572627E-1,4.239998817E0,4.223424911E0
5.794670830E-1,-2.228858918E-1,5.027233601E0,4.998542309E0
5.894959890E-1,1.861120015E-1,5.511181831E0,5.571888447E0
5.995263020E-1,4.969625771E-1,6.057779789E0,6.332827568E0
6.095573960E-1,4.507715106E-1,6.500762939E0,6.560386181E0
6.195905210E-1,-2.386887968E-1,7.069185734E0,5.852106571E0
6.296359890E-1,-1.051653147E0,7.553222656E0,4.384622574E0
6.396466660E-1,-2.074680328E0,8.049921036E0,2.956536531E0
6.496586460E-1,-2.974778652E0,8.427457809E0,2.382341862E0
6.596720830E-1,-3.251482725E0,8.378547668E0,2.228302956E0
6.696870830E-1,-3.243461609E0,8.766646385E0,2.193574190E0
6.797036460E-1,-2.563030243E0,1.005055809E1,2.266083002E0
6.897217710E-1,-1.423022747E0,1.193777466E1,3.397429228E0
6.997402600E-1,-4.933676124E-2,1.330304050E1,5.223865986E0
7.097601560E-1,1.651345253E0,1.402140045E1,6.295382023E0
7.197813020E-1,2.730906725E0,1.428886795E1,6.411713600E0
7.298034370E-1,1.660837889E0,1.527656174E1,6.196292877E0
7.398263540E-1,-2.514455914E-1,1.670352554E1,6.352381706E0
7.498498430E-1,-2.029717445E0,1.796960831E1,7.305522919E0
7.598735930E-1,-2.819830656E0,1.846057129E1,8.716053963E0
7.698970310E-1,-2.319470406E0,1.759412766E1,1.108411026E1
7.799145310E-1,-1.468017936E0,1.684730148E1,1.245251274E1
7.899314580E-1,-3.559211195E-1,1.557882977E1,1.308782387E1
7.999219270E-1,9.219222069E-1,1.366200542E1,1.252964401E1
8.099145310E-1,1.637997508E0,1.125074387E1,1.063050270E1
8.199101560E-1,2.133945704E0,9.026268005E0,7.541777611E0
8.299095310E-1,1.776329637E0,7.436537743E0,4.109962940E0
8.399132810E-1,1.066693306E0,6.227097511E0,1.357812405E0
8.499217180E-1,7.547154278E-2,5.125061989E0,-1.418182850E0
8.599350520E-1,-4.639232755E-1,4.025188446E0,-3.247140884E0
8.699531770E-1,-1.096778154E0,3.386000633E0,-3.141099930E0
8.799759370E-1,-1.833571076E0,3.175395012E0,-1.540588617E0
8.900010930E-1,-2.175059795E0,2.688830376E0,1.390018463E-1
9.000289060E-1,-1.900196791E0,2.082729340E0,1.548955441E0
9.100600000E-1,-1.170586228E0,1.521327972E0,2.632237434E0
9.200936980E-1,-3.564955592E-1,1.100655556E0,3.786153793E0
9.301291660E-1,1.212462306E0,-4.024543762E-1,3.304190159E0
9.401656250E-1,1.979358077E0,-1.253530502E0,1.851860046E0
9.502022390E-1,1.660456538E0,-1.039482117E0,1.980257034E-2
9.602250000E-1,9.186238050E-1,-7.353553772E-1,-1.687280178E0
9.702410930E-1,6.794353724E-1,-9.430103302E-1,-2.533607483E0
9.802572390E-1,6.071168184E-1,-1.340950012E0,-3.360213757E0
9.902734370E-1,8.648040295E-1,-1.529248238E0,-4.054152966E0
1.000289791E0,1.068489552E0,-1.783288002E0,-3.615914345E0
1.010306250E0,1.166580677E0,-2.087453842E0,-2.328097582E0
1.020322916E0,1.263162732E0,-2.458194256E0,-8.754506111E-1
1.030339739E0,1.691927075E0,-2.762335777E0,2.283549309E-1
1.040356718E0,2.266114712E0,-3.042669296E0,1.377354622E0
1.050373906E0,2.543933392E0,-3.202272892E0,1.972730637E0
1.060391250E0,2.132041931E0,-3.090327740E0,2.085691452E0
1.070386093E0,1.385014772E0,-2.754000664E0,1.915018082E0
1.080381093E0,5.998950005E-1,-2.505849361E0,1.705616474E0
1.090377135E0,8.383369446E-2,-2.527836323E0,1.003421307E0
1.100375052E0,9.151310474E-2,-2.980445862E0,-1.733860970E-1
1.110375521E0,1.780793667E-1,-3.630669594E0,-1.503898144E0
1.120380937E0,4.120805264E-1,-4.082127094E0,-2.550922632E0
1.130389843E0,5.749735832E-1,-4.510945320E0,-2.565538168E0
1.140403021E0,5.384803414E-1,-4.784818649E0,-1.980320692E0
1.150421562E0,4.852364957E-1,-5.035594940E0,-1.433737755E0
1.160445208E0,5.161118507E-1,-5.401413441E0,-1.310424328E0
1.170473489E0,5.616396666E-1,-5.632505417E0,-1.444665909E0
1.180505781E0,6.250414252E-1,-5.638863564E0,-1.968594313E0
1.190541302E0,6.880277991E-1,-5.731390476E0,-2.734483957E0
1.200579218E0,6.417702436E-1,-5.809520245E0,-3.525719404E0
1.210618593E0,4.060404003E-1,-5.845992088E0,-4.040326595E0
1.220658489E0,1.866131723E-1,-5.844333649E0,-4.217551708E0
1.230689427E0,3.705102950E-2,-5.834625244E0,-4.072441101E0
1.240705833E0,-4.455812275E-3,-5.914067745E0,-3.983700275E0
1.250722239E0,1.026537642E-2,-5.911728859E0,-4.082228184E0
1.260738698E0,-4.379288107E-2,-5.766180038E0,-4.262635231E0
1.270755208E0,8.654423058E-2,-5.986954212E0,-4.186899185E0
1.280771823E0,-2.458687127E-2,-5.906327724E0,-4.198289394E0
1.290788541E0,-2.449625731E-1,-5.740728855E0,-4.039266586E0
1.300805364E0,-5.569263101E-1,-5.656675339E0,-3.698049545E0
1.310784218E0,-7.101067305E-1,-5.554284096E0,-3.160765886E0
1.320766302E0,-8.696184754E-1,-5.558489323E0,-2.749666214E0
1.330752864E0,-9.767215252E-1,-5.507620811E0,-2.324106693E0
1.340744948E0,-9.756966233E-1,-5.417399883E0,-2.114769697E0
1.350743385E0,-9.389991164E-1,-5.325728416E0,-2.401189327E0
1.360748646E0,-7.181684971E-1,-5.307600975E0,-2.658726215E0
1.370760937E0,-4.179304540E-1,-5.185395241E0,-2.923295021E0
1.380780156E0,-8.321332932E-2,-4.986777306E0,-3.583509922E0
1.390804166E0,6.552273035E-2,-4.815042019E0,-3.922791481E0
1.400833177E0,2.315047085E-1,-4.583651543E0,-3.764842272E0
1.410865833E0,3.356360197E-1,-4.293981552E0,-3.287200212E0
1.420903125E0,1.073104441E-1,-3.952616215E0,-3.168905020E0
1.430944114E0,-1.927026808E-1,-3.659646511E0,-3.089276314E0
1.440987656E0,-4.567882717E-1,-3.637791157E0,-2.697388649E0
1.451032604E0,-6.111138463E-1,-3.728977680E0,-2.012565613E0
1.461077760E0,-6.016459465E-1,-3.661603451E0,-1.811557412E0
1.471102343E0,-5.110933781E-1,-3.631834030E0,-1.762709260E0
1.481118437E0,-3.174732924E-1,-3.573399544E0,-1.658954740E0
1.491134531E0,-9.767301381E-2,-3.563323021E0,-1.693857193E0
1.501150677E0,-1.243392676E-1,-3.515612602E0,-2.113578320E0
1.511125625E0,-4.613404870E-1,-3.263830185E0,-2.511429548E0
1.521104062E0,-4.780309796E-1,-3.303482056E0,-2.756147385E0
1.531087396E0,-3.662793338E-1,-3.393777370E0,-3.027103186E0
1.541076823E0,-1.377267092E-1,-3.395634174E0,-3.454395533E0
1.551073125E0,-3.099024296E-3,-3.399885178E0,-3.542419672E0
1.561076927E0,1.111613810E-1,-3.402912140E0,-3.204768658E0
1.571088437E0,2.869592309E-1,-3.448760986E0,-2.755159616E0
1.581107604E0,4.568377733E-1,-3.480607510E0,-2.345063686E0
1.591132187E0,4.998316765E-1,-3.493920326E0,-1.978579044E0
1.601161718E0,4.040924907E-1,-3.450898170E0,-1.593181610E0
1.611195468E0,2.241449207E-1,-3.304228306E0,-1.317829609E0
1.621233333E0,1.776932329E-1,-3.377886772E0,-1.057628870E0
1.631275416E0,1.137725413E-1,-3.537931919E0,-6.299390793E-1
1.641319479E0,9.338447452E-2,-3.684854984E0,-7.761142254E-1
1.651365416E0,2.179408967E-1,-3.923033714E0,-9.699218273E-1
1.661412031E0,1.871664226E-1,-3.960840702E0,-1.274625301E0
1.671445364E0,-6.988200545E-2,-3.904616356E0,-1.698294997E0
1.681462812E0,-1.610896885E-1,-4.073671341E0,-2.417025566E0
1.691479687E0,-7.132002711E-2,-4.203198433E0,-3.128010750E0
1.701496614E0,-5.172896385E-2,-4.263020992E0,-3.664357662E0
1.711513541E0,-6.881833076E-2,-4.343755722E0,-3.746999502E0
1.721504583E0,-1.148667336E-1,-4.497745514E0,-3.635893345E0
1.731497708E0,-4.271548986E-2,-4.595976830E0,-3.417986155E0
1.741493802E0,-4.832696915E-2,-4.572083473E0,-3.212957859E0
1.751493593E0,-2.473160625E-1,-4.350892067E0,-3.158210278E0
1.761497656E0,-5.095774531E-1,-4.176997185E0,-2.894095421E0
1.771506354E0,-5.982530117E-1,-3.999358177E0,-2.613202333E0
1.781519791E0,-6.302551031E-1,-3.818638325E0,-2.704816341E0
1.791537968E0,-6.190014482E-1,-3.690268040E0,-3.185062170E0
1.801560677E0,-7.228368521E-1,-3.511643887E0,-3.179963350E0
1.811587552E0,-9.667232037E-1,-3.169189930E0,-2.248142242E0
1.821616875E0,-1.143723488E0,-2.894767284E0,-1.370963335E0
1.831649166E0,-1.052329421E0,-2.522863865E0,-7.494430542E-1
1.841683698E0,-6.031309366E-1,-2.202679157E0,-4.893319607E-1
1.851719739E0,-1.576948166E-1,-1.981376648E0,-5.743312836E-1
1.861756406E0,2.084442675E-1,-1.689407349E0,-7.971174717E-1
1.871789427E0,6.213815808E-1,-1.342551708E0,-7.780945301E-1
1.881807760E0,7.927727699E-1,-1.021735191E0,3.295743465E-1
1.891779427E0,7.215065956E-1,-5.981993675E-1,2.282412052E0
1.901754739E0,6.073338985E-1,2.193880081E-2,3.700331926E0
1.911735156E0,2.840609252E-1,6.443963051E-1,4.252330780E0
1.921720156E0,-2.648133039E-2,1.255595684E0,4.641060352E0
1.931712656E0,-1.430034339E-1,1.895707130E0,4.943537235E0
1.941713333E0,-1.990205944E-1,2.509806156E0,4.644818306E0
1.951722500E0,-1.128586829E-1,3.220076561E0,3.942413807E0
1.961740156E0,6.784690022E-1,3.498901367E0,2.931005001E0
1.971765937E0,1.453126073E0,3.875324249E0,2.032844543E0
1.981799166E0,1.650262713E0,4.587941647E0,1.370515347E0
1.991838906E0,1.437736630E0,5.386802673E0,1.196247101E0
2.001884010E0,1.633980751E0,5.846519470E0,1.285151005E0
2.011933125E0,1.594146013E0,5.991429329E0,1.977289677E0
2.021983750E0,8.756309748E-1,5.959187508E0,3.559911728E0
2.032035573E0,-4.679113626E-3,6.432899475E0,5.239669800E0
2.042081979E0,-9.574798942E-1,7.201491356E0,5.929953098E0
2.052099166E0,-1.941931725E0,8.127320290E0,5.687748432E0
2.062116354E0,-2.778538704E0,1.004114151E1,4.456374168E0
2.072106614E0,-2.772210836E0,1.170506954E1,3.487326622E0
2.082097239E0,-1.622107029E0,1.267076111E1,2.545547485E0
2.092089271E0,-9.243211746E-1,1.363408661E1,2.588127613E0
2.102083646E0,-9.412621260E-1,1.449876213E1,3.668751240E0
2.112081198E0,-2.925965786E-1,1.472423172E1,5.534010410E0
2.122083281E0,-3.341436386E-4,1.464299202E1,7.249998569E0
2.132091406E0,-2.292058468E-1,1.414189529E1,9.484818459E0
2.142104583E0,-5.681133866E-1,1.369479656E1,1.174377632E1
2.152123854E0,-8.112998605E-1,1.306334209E1,1.334689617E1
2.162148906E0,-9.781452417E-1,1.202149105E1,1.325130939E1
2.172179218E0,-9.398193359E-1,1.078218746E1,1.121963596E1
2.182214062E0,-7.448645830E-1,9.326250076E0,8.668497086E0
2.192252552E0,-7.879953980E-1,8.156989098E0,6.702313423E0
2.202293750E0,-1.228070498E0,7.366209984E0,4.748003960E0
2.212336510E0,-1.429699779E0,6.445469856E0,3.237621307E0
2.222365000E0,-1.290665865E0,5.357680321E0,2.277369499E0
2.232394114E0,-1.086232424E0,4.531359673E0,1.895626545E0
2.242423333E0,-8.676193953E-1,4.082462311E0,1.253700256E0
2.252443385E0,-8.041478992E-1,3.812784195E0,6.846947670E-1
2.262461666E0,-7.621030211E-1,3.811890602E0,1.181663036E0
2.272477760E0,-1.018176079E0,3.867192268E0,2.626449108E0
2.282493854E0,-9.991538525E-1,4.011576653E0,4.347710609E0
2.292510000E0,-8.730305433E-1,3.937873840E0,5.002532482E0
2.302526250E0,-1.020442247E0,3.726467133E0,4.488851547E0
2.312542708E0,-1.340574145E0,3.713820457E0,3.550001144E0
2.322559323E0,-1.394469500E0,3.367549896E0,2.461973190E0
2.332576146E0,-1.056704283E0,2.833315849E0,2.429739952E0
2.342593177E0,-7.623893023E-1,2.175523758E0,2.745907307E0
2.352610416E0,-2.729973793E-1,1.551646233E0,2.670370579E0
2.362627812E0,1.406455636E-1,1.139415741E0,2.561325550E0
2.372645364E0,4.659482837E-1,8.259696960E-1,2.518502235E0
2.382663073E0,7.705999613E-1,4.676771164E-1,1.725847721E0
2.392665208E0,7.493523359E-1,1.112213135E-1,7.201251984E-1
2.402668698E0,4.902334511E-1,-4.862403870E-2,-9.889459610E-2
2.412674010E0,2.197259665E-1,-9.498882294E-2,-8.762335777E-1
2.422681562E0,1.674163938E-1,-1.215972900E-1,-1.414851189E0
2.432691666E0,3.297646046E-1,-8.411693573E-2,-2.046814442E0
2.442704479E0,6.157211065E-1,3.357601166E-2,-2.349525213E0
2.452720104E0,7.193605900E-1,1.120386124E-1,-1.933287144E0
2.462738541E0,7.190712690E-1,1.449613571E-1,-1.356917381E0
2.472759583E0,7.886027694E-1,6.683921814E-2,-2.097783089E-1
2.482782968E0,6.820477247E-1,-7.816028595E-2,1.556759834E0
2.492808385E0,5.807221532E-1,-5.150737762E-1,3.243800640E0
2.502835364E0,4.309021831E-1,-7.438821793E-1,3.410372734E0
2.512863437E0,2.560838163E-1,-1.022376060E0,2.486302853E0
2.522892135E0,1.411051452E-1,-1.613999844E0,1.237710476E0
2.532920989E0,-1.931995153E-3,-2.055987835E0,2.701182365E-1
2.542942708E0,-1.464622021E-1,-2.536038876E0,-5.041007996E-1
2.552960781E0,-1.646870375E-1,-3.210443974E0,-1.058567524E0
2.562977187E0,2.354791760E-2,-3.858799458E0,-1.671082973E0
2.572993593E0,3.413711786E-1,-4.231304169E0,-2.463376284E0
2.583010052E0,5.985787511E-1,-4.564022064E0,-3.206614017E0
2.592984114E0,7.403819561E-1,-4.864030838E0,-3.590446472E0
2.602959896E0,7.964325547E-1,-5.079826355E0,-3.505619049E0
2.612938958E0,9.166454077E-1,-5.343156338E0,-3.174330235E0
2.622923437E0,1.011837006E0,-5.566421509E0,-2.897689581E0
2.632913802E0,1.002896547E0,-5.761542320E0,-2.728996277E0
2.642910781E0,9.588178396E-1,-5.819437981E0,-2.514008522E0
2.652916718E0,8.127118349E-1,-5.842678070E0,-2.407158613E0
2.662931718E0,7.078406811E-1,-6.032701492E0,-2.515999556E0
2.672955521E0,6.524120569E-1,-6.231297493E0,-2.844217300E0
2.682987500E0,6.163737774E-1,-6.366166592E0,-3.258083820E0
2.693026718E0,5.477465987E-1,-6.511821747E0,-3.660284996E0
2.703072031E0,5.256102681E-1,-6.565063477E0,-3.922543526E0
2.713122031E0,5.754274130E-1,-6.595825195E0,-4.221352577E0
2.723175208E0,6.530537605E-1,-6.569164753E0,-4.622220039E0
2.733225104E0,6.410143971E-1,-6.489028931E0,-4.635546684E0
2.743275468E0,4.539688528E-1,-6.447630882E0,-4.098287106E0
2.753303906E0,1.563156843E-1,-6.227364540E0,-3.385940790E0
2.763322291E0,-1.125921607E-1,-5.820877075E0,-3.145858765E0
2.773338385E0,-1.681697369E-1,-5.396198273E0,-3.204228878E0
2.783354531E0,-8.792930841E-2,-5.019719124E0,-3.394175053E0
2.793370729E0,-1.050592661E-1,-4.675828457E0,-3.722434998E0
2.803387031E0,-1.547495127E-1,-4.449021816E0,-3.742561102E0
2.813403437E0,-2.019463778E-1,-4.381816387E0,-3.345937252E0
2.823397708E0,-3.880697489E-1,-4.302123547E0,-2.839489222E0
2.833392864E0,-4.737138152E-1,-4.200631618E0,-2.534277678E0
2.843390833E0,-1.914395094E-1,-4.392560959E0,-2.281302929E0
2.853392291E0,4.796065986E-1,-4.668082714E0,-1.823876619E0
2.863397760E0,8.736467361E-1,-4.747517586E0,-1.758347750E0
2.873407500E0,1.101794600E0,-4.542654037E0,-2.049884558E0
2.883421666E0,9.886740446E-1,-4.365584373E0,-2.695393085E0
2.893438489E0,8.798099756E-1,-4.276781559E0,-3.825875282E0
2.903459583E0,9.643253684E-1,-4.344192505E0,-4.955357552E0
2.913484583E0,9.625400305E-1,-4.353886127E0,-5.699987888E0
2.923513073E0,7.921750546E-1,-4.255986691E0,-6.052547455E0
2.933543333E0,6.372517347E-1,-4.168076992E0,-6.029113770E0
2.943574791E0,5.552393198E-1,-4.095063686E0,-5.200332165E0
2.953607916E0,5.149739385E-1,-4.040596485E0,-3.717514515E0
2.963641979E0,6.272771358E-1,-4.051986217E0,-2.594571590E0
2.973676302E0,7.701882124E-1,-4.097555637E0,-2.122081757E0
2.983699843E0,9.151988029E-1,-4.106487274E0,-1.832848310E0
2.993717083E0,1.001982927E0,-4.069631100E0,-1.577703476E0
3.003734323E0,8.642957211E-1,-3.916028500E0,-1.560965538E0
3.013751510E0,5.647855997E-1,-3.813626289E0,-1.752565861E0
3.023768698E0,4.045487046E-1,-3.795992851E0,-1.955684185E0
3.033785885E0,2.884050012E-1,-3.805622578E0,-2.213242531E0
3.043776406E0,1.102000475E-3,-3.760280132E0,-2.761142731E0
3.053769062E0,-2.033102512E-1,-3.658343792E0,-3.215236187E0
3.063764739E0,-2.495449185E-1,-3.512966633E0,-3.358954430E0
3.073763073E0,-4.543032646E-1,-3.433303833E0,-3.543562412E0
3.083764010E0,-3.289373517E-1,-3.290111065E0,-3.396467686E0
3.093768125E0,-2.924281359E-1,-3.265119076E0,-3.415465355E0
3.103775781E0,-3.723995090E-1,-3.319997311E0,-3.441769123E0
3.113787239E0,-5.832432508E-1,-3.360163689E0,-3.076808929E0
3.123803281E0,-7.885941267E-1,-3.382787228E0,-2.781868935E0
3.133824843E0,-9.901533723E-1,-3.374503136E0,-2.665178299E0
3.143849739E0,-1.008366823E0,-3.277592659E0,-2.579349518E0
3.153879323E0,-8.058112860E-1,-3.162818909E0,-2.822437286E0
3.163912916E0,-5.316090584E-1,-3.042251110E0,-3.210702419E0
3.173949687E0,-2.426447868E-1,-3.005171776E0,-3.120020390E0
3.183988802E0,-5.124771595E-2,-3.042812824E0,-2.568866253E0
3.194029271E0,-2.803206444E-2,-3.027339458E0,-2.115014553E0
3.204070052E0,-9.697762132E-2,-2.902671814E0,-1.818527699E0
3.214095781E0,-5.835622549E-2,-2.462674141E0,-1.910212517E0
3.224086302E0,5.280724168E-2,-2.199550152E0,-2.046250343E0
3.234078958E0,-5.229604244E-2,-1.800881863E0,-2.004170418E0
3.244072864E0,-1.393976808E-1,-1.151392937E0,-1.189245939E0
3.254070677E0,5.568009615E-2,-4.397273064E-1,1.503548622E-1
3.264071927E0,4.855405092E-1,1.627268791E-1,1.747165203E0
3.274078177E0,9.570314884E-1,5.669903755E-1,2.512169361E0
3.284089739E0,1.224717855E0,6.877846718E-1,2.791966915E0
3.294106562E0,1.298331141E0,6.639823914E-1,3.052187920E0
3.304128437E0,1.015757084E0,8.211679459E-1,2.924435616E0
3.314155000E0,6.643716097E-1,1.093793392E0,2.755696774E0
3.324184635E0,4.789081216E-2,1.542153358E0,2.965777397E0
3.334217760E0,-3.788654804E-1,2.051329613E0,3.552890301E0
3.344251823E0,-7.826677561E-1,2.442172050E0,4.681422234E0
3.354287916E0,-1.053708553E0,3.075183868E0,5.149968147E0
3.364325208E0,-9.646286964E-1,3.914674759E0,4.422902107E0
3.374362812E0,-5.264449716E-1,4.539028168E0,3.080700874E0
3.384361823E0,-8.020818233E-3,4.711171627E0,2.396687984E0
3.394360937E0,5.188576579E-1,5.213603973E0,2.579745770E0
3.404362552E0,6.049321890E-1,5.914761543E0,2.989639759E0
3.414367187E0,3.888523281E-1,6.621643543E0,2.886651516E0
3.424374166E0,3.508706391E-1,7.449082375E0,2.994938850E0
3.434384896E0,3.340667486E-2,8.358132362E0,3.899732113E0
3.444397656E0,-8.123277426E-1,9.420787811E0,5.388656616E0
3.454414323E0,-1.750795841E0,1.034186172E1,7.535688400E0
3.464434791E0,-2.134120703E0,1.110811043E1,8.927314758E0
3.474458750E0,-2.121370316E0,1.174250031E1,8.975831985E0
3.484485833E0,-2.208476782E0,1.213199139E1,8.076759338E0
3.494515468E0,-2.251088142E0,1.211350536E1,6.491824150E0
3.504545989E0,-1.815843463E0,1.189918041E1,4.858596802E0
3.514577916E0,-1.673798561E0,1.142292976E1,4.114183903E0
3.524602812E0,-1.606929779E0,1.102232552E1,5.400158882E0
3.534628437E0,-1.190274954E0,1.047188950E1,8.399185181E0
3.544637239E0,-9.633226395E-1,9.956932068E0,1.096762657E1
3.554647448E0,-8.320138454E-1,8.977333069E0,1.197069931E1
3.564658177E0,-6.509613991E-1,7.754212379E0,1.148778915E1
3.574670781E0,-6.829090118E-1,6.766300201E0,9.828762054E0
3.584683541E0,-1.228094816E0,5.974191666E0,7.898559570E0
3.594696666E0,-1.386729836E0,5.083164215E0,5.902071953E0
3.604710312E0,-1.284690619E0,4.292569160E0,3.440017223E0
3.614724583E0,-1.153429508E0,3.565583229E0,1.430259705E0
3.624740260E0,-8.152181506E-1,2.900897026E0,-1.678757668E-1
3.634758489E0,-5.395167470E-1,2.568310738E0,-1.546160936E0
3.644777291E0,-2.191764712E-1,2.148486137E0,-2.454910755E0
3.654798385E0,2.916736305E-1,1.446208000E0,-2.804540157E0
3.664820416E0,7.097733021E-1,7.003602982E-1,-2.718251228E0
3.674844271E0,1.177772522E0,1.485309601E-1,-2.676020145E0
3.684868489E0,1.371354342E0,-4.071884155E-1,-2.601946354E0
3.694893854E0,9.862006903E-1,-7.173905373E-1,-1.504127502E0
3.704912812E0,1.029328465E0,-7.215375900E-1,1.342006207E0
3.714932760E0,4.635586441E-1,-5.552034378E-1,3.292431831E0
3.724947239E0,-4.157176018E-1,-1.226406097E-1,4.084266186E0
3.734962864E0,-8.387792706E-1,2.647156715E-1,4.147508621E0
3.744978593E0,-7.948579788E-1,3.049426079E-1,3.128463268E0
3.754995573E0,-5.867314339E-1,4.668760300E-2,1.902214050E0
3.765012656E0,-2.560051084E-1,-5.749130249E-2,1.063230991E0
3.775030937E0,1.314251423E-1,-7.773399353E-2,2.939553261E-1
3.785049271E0,6.593070626E-1,-5.629825592E-2,-2.478833199E-1
3.795068646E0,9.922134280E-1,-6.965637207E-2,-2.419157028E-1
3.805084739E0,1.017419696E0,5.093240738E-2,5.303025246E-1
3.815101927E0,1.039383888E0,2.594604492E-1,2.056228161E0
3.825119114E0,8.768841028E-1,4.939546585E-1,3.024267673E0
3.835137396E0,6.984952688E-1,8.179273605E-1,3.089577675E0
3.845153906E0,8.074336052E-1,1.051670551E0,2.452156544E0
3.855171562E0,1.002425671E0,1.099409103E0,1.610698700E0
3.865188073E0,1.145627975E0,1.238321781E0,7.475004196E-1
3.875205677E0,1.446211696E0,1.265836239E0,3.116989136E-2
3.885222552E0,1.740148664E0,1.148023605E0,-6.619701385E-1
3.895248541E0,1.693578482E0,1.077937126E0,-8.121576309E-1
3.905257239E0,1.424131751E0,1.134854794E0,-6.193008423E-1
3.915267396E0,1.138321757E0,1.048976898E0,-2.159662247E-1
3.925278073E0,6.721913815E-1,1.122037411E0,8.892745972E-1
3.935290625E0,3.592022061E-1,1.139182091E0,1.655965328E0
3.945304062E0,2.616620064E-2,9.240789413E-1,1.878398418E0
3.955318646E0,-4.379308820E-1,7.450761795E-1,2.207454205E0
3.965334323E0,-8.392160535E-1,6.046648026E-1,2.687725067E0
3.975352187E0,-1.258435011E0,4.384250641E-1,2.732758522E0
3.985370989E0,-1.357540846E0,3.010725975E-1,2.274593353E0
3.995391771E0,-1.218602896E0,1.494407654E-1,1.548797131E0
4.005413229E0,-9.843694568E-1,-1.167387962E-1,9.432067871E-1
4.015436198E0,-6.748160124E-1,-5.141539574E-1,8.047909737E-1
4.025459323E0,-4.373332858E-1,-8.770012856E-1,9.487323761E-1
4.035483437E0,-2.998256087E-1,-1.222868443E0,1.029623032E0
4.045498333E0,-1.726314425E-1,-1.573089600E0,1.103061199E0
4.055521250E0,6.042492390E-2,-1.952517033E0,1.079658508E0
4.065532812E0,2.559958100E-1,-2.305419445E0,8.471574783E-1
4.075544583E0,4.874934852E-1,-2.661037445E0,4.693665504E-1
4.085549531E0,7.998366952E-1,-3.190288544E0,-1.351509094E-1
4.095554948E0,9.220139384E-1,-3.584606647E0,-5.711722374E-1
4.105561302E0,6.909165978E-1,-3.875824451E0,-1.008364201E0
4.115584843E0,2.939819992E-1,-4.162675381E0,-1.315284252E0
4.125609479E0,3.295147419E-2,-4.400240898E0,-1.743437290E0
4.135635937E0,-8.902823925E-2,-4.649672508E0,-2.203241348E0
4.145652916E0,-1.643153429E-1,-4.785608768E0,-2.696285486E0
4.155669896E0,-1.514416337E-1,-4.883318901E0,-3.153270483E0
4.165687552E0,-3.054010868E-2,-5.023171425E0,-3.375257015E0
4.175706979E0,1.031863689E-1,-5.147393227E0,-3.440196037E0
4.185726875E0,2.356743515E-1,-5.265806675E0,-3.578011036E0
4.195748229E0,4.453557730E-1,-5.354022980E0,-3.741790533E0
4.205769739E0,5.379697084E-1,-5.283020973E0,-3.678565502E0
4.215792291E0,5.284634233E-1,-5.192430496E0,-3.483873129E0
4.225808125E0,3.496832848E-1,-5.132163048E0,-2.944737434E0
4.235825052E0,4.629743099E-2,-4.989545822E0,-2.369770765E0
4.245841979E0,-2.932834625E-1,-4.722335339E0,-2.284255743E0
4.255858906E0,-3.266637921E-1,-4.555074692E0,-2.597166777E0
4.265875833E0,-1.603959203E-1,-4.515335083E0,-3.008164167E0
4.275893906E0,1.468229294E-2,-4.552980900E0,-3.511194468E0
4.285911458E0,1.130476594E-1,-4.723992825E0,-3.840797424E0
4.295930052E0,1.824195385E-1,-4.894731522E0,-4.039824963E0
4.305945937E0,3.435231149E-1,-5.048493385E0,-4.094516277E0
4.315962968E0,5.467265844E-1,-5.240776539E0,-4.147459984E0
4.325980000E0,6.515755057E-1,-5.333253860E0,-4.512900352E0
4.335998177E0,5.653824210E-1,-5.180388451E0,-4.926743031E0
4.346015052E0,4.322942495E-1,-4.852762222E0,-4.976548195E0
4.356031927E0,3.504603803E-1,-4.603929043E0,-4.989017963E0
4.366048802E0,3.281250596E-1,-4.433624744E0,-5.012474060E0
4.376066771E0,2.780313194E-1,-4.274532795E0,-5.195738316E0
4.386084010E0,1.329775751E-1,-4.149939537E0,-5.563611031E0
4.396086250E0,-3.134149313E-2,-4.007056236E0,-5.901027203E0
4.406089635E0,1.762555838E-1,-4.208400726E0,-6.405558586E0
4.416095781E0,3.512439430E-1,-4.172956467E0,-6.482760429E0
4.426103958E0,3.687192202E-1,-4.187512875E0,-6.354412079E0
4.436115521E0,3.529240489E-1,-4.104442120E0,-5.584442139E0
4.446129479E0,3.980374634E-1,-4.170821190E0,-4.502609730E0
4.456146927E0,2.981569767E-1,-4.275784016E0,-3.402493477E0
4.466165937E0,1.729046702E-1,-4.346123695E0,-2.569485426E0
4.476188177E0,-8.215481043E-2,-4.441344738E0,-1.999356270E0
4.486212239E0,-2.741696835E-1,-4.499978065E0,-1.962765694E0
4.496238906E0,-3.432466984E-1,-4.507487297E0,-2.172167778E0
4.506266562E0,-4.799972773E-1,-4.500876904E0,-2.576923370E0
4.516295833E0,-5.985832810E-1,-4.429951668E0,-2.999465704E0
4.526307448E0,-6.243261099E-1,-4.431664944E0,-3.256839991E0
4.536321041E0,-5.760649443E-1,-4.375272751E0,-3.625149727E0
4.546335625E0,-3.703863025E-1,-4.697926521E0,-4.232880592E0
4.556352343E0,-2.784677744E-1,-4.842510700E0,-4.150518894E0
4.566369323E0,-3.733775020E-1,-4.799869061E0,-3.714474678E0
4.576388333E0,-3.379806280E-1,-4.768370152E0,-3.046660423E0
4.586407448E0,-1.673785448E-1,-4.621114731E0,-2.430388689E0
4.596426614E0,-1.641036868E-1,-4.232271194E0,-1.726154089E0
4.606445260E0,-3.891569376E-1,-3.778340816E0,-1.290759325E0
4.616467916E0,-5.514348149E-1,-3.437863350E0,-1.532188177E0
4.626490833E0,-5.165221691E-1,-3.356733799E0,-1.969468117E0
4.636514843E0,-3.554214239E-1,-3.458652020E0,-2.647000074E0
4.646514166E0,-1.198418140E-1,-3.495047569E0,-3.366030693E0
4.656515989E0,1.151242256E-1,-3.476099968E0,-3.765616894E0
4.666519010E0,3.261246979E-1,-3.336139202E0,-3.422416687E0
4.676525573E0,2.412077188E-1,-2.622305870E0,-2.068656683E0
4.686534843E0,-1.452630758E-1,-1.634875298E0,4.761600494E-2
4.696548125E0,-5.907807946E-1,-6.514110565E-1,1.925628185E0
4.706564323E0,-7.788056731E-1,-2.085871696E-1,2.757077217E0
4.716584427E0,-3.922987580E-1,2.381753922E-1,2.509900570E0
4.726607135E0,1.563591361E-1,6.724357605E-1,1.777573109E0
4.736633177E0,2.835659981E-1,9.411926270E-1,1.366988659E0
4.746660989E0,3.577049673E-1,9.496927261E-1,1.377704620E0
4.756691146E0,4.728378356E-1,9.733719826E-1,1.818315506E0
4.766720885E0,4.417817593E-1,1.150410175E0,2.739929676E0
4.776751927E0,4.252934754E-1,1.451089859E0,3.275639057E0
4.786773021E0,3.940406442E-1,1.549157143E0,2.988539219E0
4.796795000E0,-2.996224165E-2,1.916846275E0,2.491821289E0
4.806807500E0,-2.537088990E-1,2.375322342E0,2.233630657E0
4.816821250E0,-1.849842072E-1,2.888805389E0,1.759660244E0
4.826835260E0,-9.856271744E-2,3.196582794E0,5.075740814E-1
4.836850781E0,-4.041501284E-1,3.572670937E0,-3.981184959E-1
4.846866666E0,-7.082885504E-1,3.965685844E0,-2.388210297E-1
4.856884062E0,-1.255981326E0,4.666653633E0,1.678080559E-1
4.866893177E0,-1.928001881E0,5.887836456E0,1.792829514E0
4.876904427E0,-1.867787361E0,7.096475124E0,5.044687271E0
4.886916823E0,-9.063019753E-1,8.564628601E0,8.504720688E0
4.896931614E0,1.577920914E-1,9.794144630E0,1.096317005E1
4.906947708E0,3.499172926E-1,1.084843636E1,1.228623009E1
4.916966198E0,-4.958237410E-1,1.207568455E1,1.164382172E1
4.926986198E0,-1.899773836E0,1.312299538E1,9.723293304E0
4.937008229E0,-3.372085810E0,1.381755543E1,7.200994492E0
4.947031406E0,-4.138502598E0,1.411273956E1,5.982140064E0
4.957056093E0,-4.158837795E0,1.456150150E1,5.581374168E0
4.967080885E0,-3.402124405E0,1.498195744E1,6.935260296E0
4.977106510E0,-2.159036398E0,1.476761818E1,9.139644623E0
4.987103802E0,-5.974256992E-2,1.351843262E1,1.130716705E1
4.997103489E0,2.313380003E0,1.222019196E1,1.290471268E1
5.007104531E0,3.181101799E0,1.087452316E1,1.323692322E1
5.017109166E0,3.029789448E0,9.468694687E0,1.227538776E1
5.027116093E0,1.526113391E0,7.976050377E0,9.655025482E0
5.037127291E0,2.849147916E-1,6.734665871E0,7.450778008E0
5.047141041E0,-1.204292297E0,6.124898911E0,5.095504284E0
5.057159166E0,-2.516879082E0,5.107358932E0,3.013158321E0
5.067179791E0,-2.936490536E0,3.899949074E0,1.634016037E0
5.077203281E0,-2.962507010E0,3.440110207E0,1.295422554E0
5.087228541E0,-2.416279316E0,2.916347504E0,9.216952324E-1
5.097255208E0,-1.761940479E0,2.086421013E0,4.255409241E-1
5.107282864E0,-1.206740260E0,1.425459862E0,3.702716827E-1
5.117312812E0,-6.326673031E-1,1.052524567E0,6.261816025E-1
5.127342968E0,-8.357942104E-2,1.001542091E0,3.456468582E-1
5.137374323E0,6.737058759E-1,9.211492538E-1,5.707325935E-1
5.147375677E0,1.205395222E0,9.481611252E-1,9.212512970E-1
5.157379427E0,1.148712277E0,1.167284966E0,1.173861027E0
5.167384583E0,7.040746808E-1,1.379125595E0,1.176964283E0
5.177393021E0,7.387566566E-2,1.629095078E0,7.924742699E-1
5.187403281E0,-1.471951604E-1,1.708528519E0,5.149755478E-1
5.197417239E0,2.920817733E-1,1.547004700E0,6.199097633E-1
5.207433177E0,4.878548384E-1,1.364220619E0,6.156988144E-1
5.217452760E0,9.440910816E-1,1.292623520E0,1.045863628E0
5.227480208E0,1.242008209E0,1.076092720E0,1.526780128E0
5.237510364E0,1.446013212E0,7.683105469E-1,2.046453953E0
5.247552552E0,1.541841269E0,6.821928024E-1,2.327178955E0
5.257595312E0,1.508818030E0,4.681997299E-1,1.901190281E0
5.267582448E0,1.453663945E0,3.787431717E-1,1.189612865E0
5.277572552E0,1.315427780E0,2.848358154E-1,6.572465897E-1
5.287578958E0,9.674870968E-1,4.335308075E-1,4.219274521E-1
5.297589062E0,5.304129124E-1,7.671241760E-1,3.004617691E-1
5.307614739E0,3.509410620E-1,8.541307449E-1,2.461123466E-1
5.317643281E0,3.515728116E-1,7.577657700E-1,3.294649124E-1
5.327684166E0,3.024071157E-1,7.133607864E-1,3.481488228E-1
5.337725989E0,2.514151037E-1,5.852136612E-1,6.065130234E-1
5.347777604E0,2.647593915E-1,2.976369858E-1,9.584226608E-1
5.357782187E0,1.990242600E-1,-6.172847748E-2,1.003740788E0
5.367754791E0,2.562844455E-1,-4.706897736E-1,1.009612560E0
5.377730937E0,3.025367558E-1,-9.203233719E-1,5.906281471E-1
5.387710364E0,2.724156976E-1,-1.432558537E0,-3.513622284E-2
5.397696198E0,1.802605689E-1,-1.913525581E0,-6.236066818E-1
5.407687968E0,1.870670915E-2,-2.298679829E0,-1.294245481E0
5.417687968E0,2.566662431E-2,-2.819872379E0,-1.765008926E0
5.427699531E0,9.172433615E-2,-3.321998119E0,-2.111650944E0
5.437719427E0,1.200190187E-2,-3.746466637E0,-2.246373653E0
5.447745521E0,-1.809431612E-1,-4.051584721E0,-2.153578520E0
5.457778906E0,-1.816524267E-1,-4.344748020E0,-2.126477480E0
5.467816979E0,-1.371259093E-1,-4.627279282E0,-2.166967154E0
5.477860416E0,-7.689395547E-2,-4.865988255E0,-2.293576002E0
5.487906250E0,5.715760589E-2,-5.065708637E0,-2.434398890E0
5.497954896E0,2.098803073E-1,-5.328401089E0,-2.351878643E0
5.507998541E0,3.062381148E-1,-5.540387154E0,-2.431009293E0
5.518042812E0,3.143643737E-1,-5.644100666E0,-2.667050838E0
5.528032864E0,1.144219041E-1,-5.532874584E0,-3.006003618E0
5.538025677E0,1.314510256E-1,-5.799397469E0,-3.214411020E0
5.548020416E0,1.649773121E-2,-5.968811512E0,-3.131828070E0
5.558019583E0,-1.105921566E-1,-6.179594040E0,-3.361995697E0
5.568022031E0,-1.770835817E-1,-6.269208908E0,-3.206303120E0
5.578028125E0,-1.068031490E-1,-6.353264809E0,-2.922496796E0
5.588038177E0,-7.792562246E-2,-6.365203857E0,-2.677493095E0
5.598052343E0,-6.151905656E-2,-6.343460083E0,-2.552386761E0
5.608070573E0,-1.202365160E-1,-6.226184368E0,-2.455655098E0
5.618094479E0,-1.725947559E-1,-6.095451832E0,-2.404891491E0
5.628121875E0,-9.008058906E-2,-5.956402779E0,-2.399129391E0
5.638153906E0,-5.532032251E-2,-5.856252670E0,-2.802850008E0
5.648188073E0,-3.519779444E-2,-5.745662212E0,-3.107293606E0
5.658225260E0,-1.159683466E-1,-5.599105358E0,-3.412630320E0
5.668262916E0,-2.793613970E-1,-5.472761154E0,-3.340129852E0
5.678300781E0,-4.510557353E-1,-5.299841881E0,-3.120172024E0
5.688309427E0,-4.689672887E-1,-5.177133083E0,-2.927335739E0
5.698320052E0,-4.272660017E-1,-5.206050873E0,-2.858763933E0
5.708331146E0,-4.114338756E-1,-5.310584068E0,-2.878481388E0
5.718344635E0,-2.345505655E-1,-5.476328373E0,-3.009806395E0
5.728358854E0,8.822962642E-3,-5.640637398E0,-3.277237892E0
5.738375625E0,2.981610894E-1,-5.845667839E0,-3.472494602E0
5.748393177E0,5.939582586E-1,-6.129171371E0,-3.792721510E0
5.758413177E0,9.418639541E-1,-6.485856056E0,-4.142675400E0
5.768433698E0,1.059775949E0,-6.614124298E0,-4.346095562E0
5.778455208E0,8.356731534E-1,-6.424099922E0,-4.445301056E0
5.788476875E0,3.974701762E-1,-5.920853615E0,-4.728534222E0
5.798500208E0,1.124159396E-1,-5.410109520E0,-4.810367584E0
5.808532135E0,-3.019710630E-2,-5.026230812E0,-4.450663567E0
5.818564479E0,-3.758536279E-2,-4.707872868E0,-3.991590023E0
5.828550677E0,8.083599806E-2,-4.373870850E0,-4.039437294E0
5.838537968E0,1.547546089E-1,-4.119142056E0,-4.030365467E0
5.848527604E0,3.332008123E-1,-3.942471981E0,-3.980792046E0
5.858522343E0,5.690193176E-1,-3.761727810E0,-3.930022478E0
5.868524896E0,7.523169518E-1,-3.748946667E0,-3.681444168E0
5.878531666E0,8.011373281E-1,-3.809004784E0,-2.884129763E0
5.888542916E0,5.989826322E-1,-3.719853878E0,-1.691005468E0
5.898560468E0,2.774232924E-1,-3.543737888E0,-5.671827793E-1
5.908584062E0,2.090123296E-2,-3.343576431E0,3.825607300E-1
5.918613229E0,-3.032386303E-4,-3.199727535E0,3.954381943E-1
5.928650208E0,1.059771180E-1,-3.064198971E0,-3.359551430E-1
5.938690989E0,2.162058651E-1,-2.967292309E0,-1.405150890E0
5.948734427E0,2.803879976E-1,-2.913085938E0,-2.821514130E0
5.958779375E0,3.394033909E-1,-2.957376480E0,-4.017709255E0
5.968824635E0,3.410389423E-1,-3.190362930E0,-4.660171032E0
5.978850833E0,1.458980739E-1,-3.486024857E0,-4.466073036E0
5.988867812E0,-2.731162310E-1,-3.497040272E0,-3.405695438E0
5.998884791E0,-6.802234054E-1,-3.137097359E0,-1.932921171E0
6.008901771E0,-9.885566235E-1,-2.732104778E0,-8.915092945E-1
6.018918750E0,-1.109408855E0,-2.491017342E0,-3.606524467E-1
6.028935729E0,-9.864408374E-1,-2.381803513E0,-7.797145844E-2
6.038952760E0,-8.939641118E-1,-2.385405064E0,-5.483291149E-1
6.048969843E0,-6.873524785E-1,-2.575932503E0,-1.476532459E0
6.058986979E0,-3.907311559E-1,-2.895408154E0,-2.478078604E0
6.069004166E0,-2.193434834E-1,-3.276259422E0,-2.792366028E0
6.079021406E0,-1.600326896E-1,-3.214571953E0,-2.075567007E0
6.088995781E0,-4.133146405E-1,-2.446414948E0,-7.172498703E-1
6.098971823E0,-5.151384473E-1,-1.585097313E0,7.441926003E-1
6.108951146E0,-2.792195082E-1,-9.923067093E-1,1.639667034E0
6.118936979E0,-7.888597250E-2,-4.389586449E-1,1.938910484E0
6.128928489E0,2.629837692E-1,-3.858184814E-2,2.210125923E0
6.138928229E0,5.255351067E-1,-8.675575256E-3,2.626521111E0
6.148936562E0,4.750996828E-1,-6.488704681E-2,2.912674904E0
6.158953541E0,4.860118330E-1,3.771696091E-1,2.866807461E0
6.168978802E0,6.024518013E-1,1.221595764E0,2.985820770E0
6.179011666E0,4.917209148E-1,2.099862099E0,3.492767811E0
6.189049427E0,-6.864118576E-2,3.454657555E0,4.001663208E0
6.199092864E0,-3.801413178E-1,4.966758728E0,4.420391560E0
6.209140729E0,-2.948653102E-1,6.160324097E0,4.748058796E0
6.219191666E0,4.219263196E-1,6.991949081E0,4.743678093E0
6.229244166E0,1.893138885E0,6.993281364E0,3.058970928E0
6.239296718E0,2.458354712E0,7.006701469E0,-4.203462601E-1
6.249316041E0,1.578477621E0,8.537775993E0,-3.119550228E0
6.259333281E0,-4.075419903E-1,1.089358425E1,-2.713735580E0
6.269350521E0,-3.117951870E0,1.287286472E1,1.028282642E0
6.279367760E0,-4.711634159E0,1.443065643E1,5.606285572E0
6.289375468E0,-4.744428635E0,1.510282040E1,9.967876434E0
6.299383958E0,-4.809351444E0,1.570648575E1,1.385988045E1
6.309393489E0,-5.508261681E0,1.626587296E1,1.685706139E1
6.319404375E0,-5.094114780E0,1.581363106E1,1.763247490E1
6.329416771E0,-3.552101851E0,1.460639381E1,1.510725594E1
6.339430833E0,-2.408036232E0,1.383839130E1,9.857868195E0
6.349446614E0,-1.606258392E0,1.389127350E1,4.955362797E0
6.359464114E0,1.080286801E-1,1.360953808E1,3.105658054E0
6.369483229E0,1.657968402E0,1.301280689E1,3.546308994E0
6.379503854E0,3.146945000E0,1.213389969E1,6.548871517E0
6.389513021E0,3.775777817E0,1.100968552E1,9.206169128E0
6.399523177E0,3.259547472E0,9.606538773E0,1.084926605E1
6.409535677E0,1.919733286E0,8.256722450E0,1.140082073E1
6.419550573E0,6.465538144E-1,6.852157593E0,1.083704567E1
6.429567864E0,-5.929356217E-1,5.387621880E0,9.181596756E0
6.439587500E0,-1.318496227E0,4.343371391E0,6.762494564E0
6.449609271E0,-1.549032807E0,3.674283028E0,3.902701378E0
6.459632916E0,-1.625747919E0,3.458895683E0,1.163727760E0
6.469658073E0,-1.738975286E0,3.447834015E0,-4.218444824E-1
6.479684375E0,-1.466011286E0,3.376600266E0,-5.076296329E-1
6.489685468E0,-1.152589560E0,3.391260147E0,2.012257576E-1
6.499689010E0,-6.557819247E-1,3.030648232E0,6.820855141E-1
6.509695416E0,-2.196537256E-1,2.617345810E0,1.216408730E0
6.519705000E0,1.063984632E-1,2.387635231E0,1.486032486E0
6.529717968E0,1.464623213E-1,2.038311958E0,1.471776009E0
6.539734375E0,2.015894651E-2,1.623842239E0,9.940018654E-1
6.549754062E0,-2.170127630E-1,1.338563919E0,2.904276848E-1
6.559776823E0,-3.430879116E-1,1.041215897E0,-1.904900074E-1
6.569802291E0,-3.378599286E-1,7.286262512E-1,-3.819425106E-1
6.579830052E0,-2.286844254E-1,4.967164993E-1,-2.774596214E-2
6.589857812E0,-5.666396618E-1,3.008337021E-1,1.149873734E-1
6.599875156E0,-2.142792344E-1,1.443786621E-1,7.864828110E-1
6.609892396E0,1.118315160E-1,-2.047433853E-1,9.933075905E-1
6.619911406E0,2.053485960E-1,-3.884592056E-1,7.391231060E-1
6.629929687E0,2.510666251E-1,-3.584890366E-1,3.432631493E-1
6.639948489E0,5.282173157E-1,-3.284721375E-1,-3.148460388E-2
6.649968854E0,7.670146227E-1,-4.064044952E-1,-2.849812508E-1
6.659990521E0,8.104870319E-1,-3.478975296E-1,-1.608052254E-1
6.670013281E0,8.805994987E-1,-3.109140396E-1,-5.719971657E-2
6.680036875E0,9.181189537E-1,-3.819885254E-1,2.230398655E-1
6.690047760E0,7.970360518E-1,-4.855003357E-1,4.623661041E-1
6.700058906E0,3.688278794E-1,-5.742530823E-1,5.287570953E-1
6.710071614E0,8.596068621E-2,-7.786502838E-1,7.940177917E-1
6.720085989E0,1.680060029E-1,-1.114248276E0,8.793277740E-1
6.730102083E0,3.339918554E-1,-1.509718895E0,7.871177197E-1
6.740119843E0,4.368828833E-1,-1.907238007E0,4.742369652E-1
6.750139218E0,4.337979555E-1,-2.310839653E0,3.840024471E-1
6.760160052E0,4.954043031E-1,-2.806591511E0,3.251211643E-1
6.770182187E0,6.201692820E-1,-3.379703999E0,-1.759140491E-1
6.780205364E0,6.496930718E-1,-3.904406071E0,-9.015579224E-1
6.790229271E0,6.226986647E-1,-4.312622547E0,-1.343400836E0
6.800223125E0,4.563303590E-1,-4.674772263E0,-1.760159135E0
6.810219531E0,4.174755216E-1,-4.904610634E0,-1.923885345E0
6.820219271E0,4.664787352E-1,-5.026885033E0,-1.924848080E0
6.830222864E0,5.831857324E-1,-5.463175774E0,-2.100727081E0
6.840230729E0,6.409882903E-1,-5.600502968E0,-2.247088909E0
6.850243073E0,5.503882170E-1,-5.850600243E0,-2.378471375E0
6.860259948E0,4.764361978E-1,-6.047200203E0,-1.955494046E0
6.870281146E0,2.947454453E-1,-6.168094635E0,-1.562251806E0
6.880306354E0,2.298134565E-2,-6.353202820E0,-1.252127528E0
6.890333281E0,-5.270183086E-2,-6.450261116E0,-1.255879164E0
6.900361458E0,-1.495259702E-1,-6.501830101E0,-1.665241122E0
6.910392187E0,-2.275668085E-1,-6.420472622E0,-2.030252457E0
6.920424843E0,-2.814062834E-1,-6.620842457E0,-2.647428751E0
6.930458698E0,-2.915173173E-1,-6.569974899E0,-2.834796429E0
6.940493073E0,-1.521150768E-1,-6.539691925E0,-2.942795992E0
6.950523437E0,-9.202408791E-2,-6.453131676E0,-2.849551201E0
6.960540416E0,-5.700615048E-2,-6.339405060E0,-2.540685415E0
6.970557448E0,1.092838198E-1,-6.218931675E0,-2.126528025E0
6.980574479E0,1.701411009E-1,-6.007005692E0,-1.816992640E0
6.990591562E0,1.642780304E-1,-5.738815308E0,-1.357050657E0
7.000582448E0,1.136709005E-1,-5.492362499E0,-1.099665999E0
7.010575416E0,-4.045824707E-2,-5.201112270E0,-1.075737119E0
7.020571406E0,-1.990565658E-1,-4.927582741E0,-1.354636908E0
7.030571146E0,-3.118392229E-1,-4.899825573E0,-2.203685522E0
7.040575156E0,-2.255147994E-1,-5.023909092E0,-3.006590366E0
7.050583802E0,-2.128407359E-1,-4.982268333E0,-3.490466595E0
7.060597291E0,-3.096132576E-1,-4.922559261E0,-3.714432240E0
7.070615573E0,-2.054869533E-1,-4.973749638E0,-3.527668476E0
7.080638437E0,3.227144480E-4,-5.050232410E0,-3.353132725E0
7.090663646E0,2.756898403E-1,-5.119452953E0,-3.180849314E0
7.100690781E0,4.695866108E-1,-5.148992062E0,-2.995729446E0
7.110719375E0,5.989124775E-1,-5.120791435E0,-2.687632561E0
7.120750677E0,5.266415477E-1,-4.902122974E0,-2.754087925E0
7.130784010E0,3.628360033E-1,-4.627291203E0,-3.213407993E0
7.140817604E0,2.123098671E-1,-4.434374332E0,-3.809807777E0
7.150851875E0,1.363239735E-1,-4.231733799E0,-4.087182045E0
7.160886146E0,1.343873590E-1,-4.114652157E0,-4.234140873E0
7.170903750E0,1.153662652E-1,-4.067953110E0,-4.430519104E0
7.180920156E0,2.083868682E-1,-4.095399857E0,-4.560159206E0
7.190936562E0,3.287431896E-1,-4.167567730E0,-4.400331497E0
7.200952968E0,4.395349324E-1,-4.193296432E0,-4.190690517E0
7.210969427E0,4.840841889E-1,-4.206235409E0,-3.690847874E0
7.220985989E0,2.551060319E-1,-3.934832573E0,-2.629639626E0
7.231002656E0,5.165487528E-2,-4.017029285E0,-1.833271623E0
7.241019479E0,-1.617012918E-1,-3.875172615E0,-6.123856306E-1
7.251036510E0,-2.152397931E-1,-3.831520081E0,5.207681656E-2
7.261053698E0,-2.821625471E-1,-3.771653175E0,1.862025261E-1
7.271071041E0,-3.670598865E-1,-3.713967800E0,4.594683647E-2
7.281088541E0,-3.637734652E-1,-3.619318008E0,-1.038286686E-1
7.291106146E0,-3.199589550E-1,-3.593200207E0,-1.525473595E-1
7.301123854E0,-1.439844966E-1,-3.736616611E0,-1.075279713E-1
7.311102500E0,-5.531370640E-2,-3.882047653E0,-3.701021671E-1
7.321084323E0,-1.288398206E-1,-3.986655235E0,-5.136616230E-1
7.331070677E0,-2.417761385E-1,-3.946038246E0,-5.321326256E-1
7.341062552E0,-1.372145116E-1,-4.429150581E0,-1.067956567E0
7.351060781E0,-8.810675144E-2,-4.491305828E0,-1.308745861E0
7.361065833E0,2.065300941E-4,-4.542978287E0,-1.666594982E0
7.371077916E0,-1.184836328E-1,-4.629721165E0,-1.894792795E0
7.381096979E0,-2.056137323E-1,-4.458600521E0,-1.615568876E0
7.391120885E0,-2.176207006E-1,-4.159589767E0,-1.488334775E0
7.401150937E0,-2.913672626E-1,-3.849554062E0,-1.166988850E0
7.411186458E0,-3.781742156E-1,-3.655076504E0,-9.314308167E-1
7.421226458E0,-4.018102586E-1,-3.538950920E0,-1.035675526E0
7.431269896E0,-3.812516630E-1,-3.428964615E0,-1.002107859E0
7.441315521E0,-3.072836995E-1,-3.415828228E0,-5.781569481E-1
7.451362135E0,-1.154088676E-1,-3.351875305E0,-1.119377613E-1
7.461402916E0,1.002171040E-1,-3.332470894E0,-2.884001732E-1
7.471420156E0,3.062331676E-1,-3.283730984E0,-7.678141594E-1
7.481437396E0,5.871939659E-1,-2.921358109E0,-1.111320734E0
7.491454635E0,4.684081674E-1,-2.215917110E0,-1.098322630E0
7.501471875E0,-4.523739219E-2,-1.374481201E0,-7.464423180E-1
7.511447135E0,-2.051199973E-1,-8.155493736E-1,1.842949390E-1
7.521425729E0,-1.913070679E-3,-5.785284042E-1,9.186763763E-1
7.531409062E0,3.191806376E-1,-4.831113815E-1,1.969426870E0
7.541398333E0,6.582081318E-1,-2.790565491E-1,2.756273270E0
7.551394375E0,8.507606983E-1,-9.607124329E-2,2.668501616E0
7.561397812E0,8.806749582E-1,3.516426086E-1,1.741312504E0
7.571408906E0,8.594568372E-1,1.029970169E0,8.298349380E-1
7.581427552E0,6.356527805E-1,1.663095474E0,1.138455391E0
7.591451614E0,6.648534536E-1,2.040426254E0,1.914873362E0
7.601480625E0,3.826421499E-1,2.461924553E0,2.116235495E0
7.611513906E0,1.315887451E0,3.020487785E0,2.998101473E0
7.621551354E0,1.795028329E0,3.563543320E0,2.895951509E0
7.631593073E0,1.778844118E0,4.380757332E0,2.050873280E0
7.641636823E0,1.411900759E0,5.330033302E0,6.562743187E-1
7.651682604E0,7.508646250E-1,6.068709373E0,-7.615635395E-1
7.661729218E0,2.427526414E-1,7.069768906E0,-1.368714809E0
7.671765156E0,-2.945551872E-1,8.674960136E0,-8.041141033E-1
7.681782448E0,-1.676580548E0,1.104683590E1,1.132102013E0
7.691799635E0,-2.966770172E0,1.319512272E1,4.619706154E0
7.701816718E0,-3.240426064E0,1.448336029E1,7.400300503E0
7.711789791E0,-3.433582067E0,1.580674171E1,1.012897110E1
7.721765312E0,-3.250084400E0,1.685153198E1,1.133289146E1
7.731745937E0,-2.221882105E0,1.680245972E1,1.006022644E1
7.741732916E0,-1.411598325E0,1.642333984E1,7.371841908E0
7.751727187E0,-1.889792442E0,1.672705841E1,5.730410099E0
7.761729427E0,-3.202425003E0,1.690021324E1,6.321496487E0
7.771739896E0,-3.542198658E0,1.593578243E1,8.106362343E0
7.781758541E0,-2.465810299E0,1.443242264E1,9.874286652E0
7.791784948E0,-1.090926170E0,1.282859612E1,1.127744198E1
7.801818489E0,1.707887203E-1,1.102638149E1,1.185571289E1
7.811858229E0,1.298186183E0,9.179558754E0,1.251421738E1
7.821901198E0,2.046043634E0,7.612627983E0,1.218036556E1
7.831948021E0,2.149826050E0,6.456138611E0,1.045590019E1
7.841997343E0,1.765453696E0,5.524004936E0,7.545826435E0
7.852047812E0,1.097715378E0,4.796675682E0,5.109301567E0
7.862094427E0,1.927217543E-1,4.383970261E0,3.126451969E0
7.872110260E0,-8.082092553E-2,3.778722763E0,1.342706203E0
7.882126146E0,-4.774198532E-1,3.478249550E0,-2.769470215E-2
7.892100364E0,-7.950928807E-1,3.579170227E0,-1.081372261E0
7.902078073E0,-8.123385906E-1,3.143337250E0,-1.283895016E0
7.912060729E0,-8.054418564E-1,2.653593063E0,-5.779366493E-1
7.922048437E0,-5.256581306E-1,2.436574936E0,1.451894283E0
7.932043229E0,-8.192834258E-2,2.219325066E0,2.302676678E0
7.942045781E0,1.592921913E-1,2.146233559E0,1.979997158E0
7.952056302E0,5.988669991E-1,2.076277733E0,1.494447231E0
7.962074739E0,1.000527978E0,1.862480164E0,8.535814285E-1
7.972100729E0,8.613023758E-1,1.752905846E0,5.275406837E-1
7.982133646E0,5.191953778E-1,1.628387451E0,5.475020409E-1
7.992172604E0,2.300179303E-1,1.331058502E0,5.972676277E-1
8.002216458E0,1.327546537E-1,1.157416344E0,4.957275391E-1
8.012263958E0,-1.002056301E-1,1.105299950E0,8.112411499E-1
8.022311979E0,-1.761710048E-1,1.132565498E0,1.559676647E0
8.032361093E0,5.652698874E-2,1.087528229E0,1.943671227E0
8.042403593E0,3.927445412E-1,9.932804108E-1,1.837225437E0
8.052421927E0,8.324943781E-1,1.018177032E0,1.631752968E0
8.062439218E0,1.179211140E0,1.171012878E0,1.118665695E0
8.072455625E0,1.534184337E0,9.231615067E-1,3.950386047E-1
8.082472083E0,1.864372015E0,6.917657852E-1,2.015800476E-1
8.092445468E0,1.775347948E0,4.858722687E-1,1.697192192E-1
8.102420573E0,1.434050441E0,4.004020691E-1,2.427368164E-1
8.112399010E0,1.036196589E0,2.188653946E-1,5.517373085E-1
8.122382239E0,5.235478878E-1,-7.985973358E-2,1.392454147E0
8.132373177E0,4.084106088E-1,-4.606494904E-1,2.216491699E0
8.142370781E0,1.702044010E-1,-1.025060654E0,2.563432217E0
8.152377396E0,-3.372831345E-1,-1.537763119E0,2.127642632E0
8.162393073E0,-8.040869236E-1,-1.981898785E0,1.694141865E0
8.172417500E0,-8.518962860E-1,-2.469897270E0,9.374179840E-1
8.182450052E0,-4.993820786E-1,-3.029116631E0,8.772850037E-3
8.192489791E0,2.565506101E-2,-3.628550053E0,-1.091276884E0
8.202535521E0,4.923956990E-1,-4.021154404E0,-2.202598095E0
8.212585833E0,7.748996019E-1,-4.291544914E0,-2.995755434E0
8.222638177E0,8.725509644E-1,-4.558011055E0,-3.380211353E0
8.232692135E0,9.771087170E-1,-4.739722252E0,-3.280351162E0
8.242746198E0,1.023579359E0,-5.000964165E0,-2.851374149E0
8.252767135E0,8.903398514E-1,-5.096196175E0,-1.851773262E0
8.262783229E0,7.966579199E-1,-5.177892685E0,-6.314625740E-1
8.272799323E0,7.269122005E-1,-5.293505192E0,4.045915604E-1
8.282815521E0,5.699030161E-1,-5.368602276E0,6.031427383E-1
8.292831823E0,4.444149435E-1,-5.435929298E0,2.612004280E-1
8.302848281E0,2.137993872E-1,-5.431408882E0,-4.285228252E-1
8.312864948E0,-1.468789577E-2,-5.495676994E0,-1.267190933E0
8.322859791E0,-2.014761567E-1,-5.425555706E0,-1.830967426E0
8.332856562E0,-3.994531631E-1,-5.735357285E0,-2.772211790E0
8.342856041E0,-3.555709124E-1,-5.862658501E0,-2.998579741E0
8.352858854E0,-2.278662920E-1,-5.988680840E0,-3.108073711E0
8.362865416E0,-1.361745000E-1,-6.023597717E0,-2.769181252E0
8.372875989E0,1.536893845E-2,-6.060313702E0,-2.407693624E0
8.382890677E0,1.815935373E-1,-5.890390396E0,-1.988770247E0
8.392907760E0,9.883338213E-2,-5.755219460E0,-1.778033495E0
8.402927760E0,5.732879043E-2,-5.541311741E0,-1.703242898E0
8.412951510E0,6.278172135E-2,-5.406967640E0,-2.139861345E0
8.422978646E0,1.355894804E-1,-5.308017731E0,-2.759445429E0
8.433008593E0,1.608988345E-1,-5.247181892E0,-3.295588970E0
8.443040729E0,3.232949972E-2,-5.156078815E0,-3.543313503E0
8.453074375E0,-1.198549569E-1,-5.010004997E0,-3.698627472E0
8.463108802E0,-1.838845015E-1,-4.846041203E0,-3.915566921E0
8.473143333E0,1.180869341E-2,-4.863868237E0,-3.739643097E0
8.483162968E0,2.589011192E-1,-4.881644249E0,-3.385810375E0
8.493180208E0,3.823266923E-1,-4.914972782E0,-2.863727331E0
8.503197448E0,5.564111471E-1,-4.970226765E0,-2.191192627E0
8.513214687E0,5.870077610E-1,-4.824892044E0,-1.470356345E0
8.523231927E0,6.695291400E-1,-4.654510498E0,-5.190081596E-1
8.533249166E0,7.451926470E-1,-4.504788399E0,-1.461706161E-1
8.543266406E0,5.790560246E-1,-4.261210442E0,-4.022102356E-1
8.553283698E0,1.778572500E-1,-3.960200310E0,-1.331092119E0
8.563300989E0,-5.862349272E-2,-3.680068970E0,-2.674458742E0
8.573318281E0,-1.444204450E-1,-3.479899406E0,-3.983262062E0
8.583291093E0,-1.654751301E-1,-3.380954266E0,-4.942047119E0
8.593265677E0,-1.549696326E-1,-3.376817703E0,-5.500031471E0
8.603243646E0,-1.411322951E-1,-3.461621761E0,-5.714037895E0
8.613223177E0,-1.102547646E-1,-3.639389038E0,-5.438232899E0
8.623209687E0,1.740071177E-2,-3.976117611E0,-5.104167938E0
8.633205260E0,6.088095903E-2,-4.033756733E0,-3.751424074E0
8.643208541E0,-8.953154087E-3,-4.017073631E0,-2.119807482E0
8.653221562E0,-1.522327065E-1,-4.073180676E0,-5.856401920E-1
8.663244114E0,-1.861334741E-1,-4.085303783E0,7.252359390E-1
8.673275677E0,4.600566626E-2,-4.074511528E0,1.229822636E0
8.683315260E0,2.562161386E-1,-4.198744774E0,1.135566473E0
8.693361666E0,3.102921844E-1,-4.208347321E0,7.806048393E-1
8.703413437E0,3.385854065E-1,-4.217073917E0,1.472365856E-1
8.713468958E0,4.854343832E-1,-4.414890766E0,-5.763013363E-1
8.723526562E0,6.215510368E-1,-4.781101704E0,-1.096790791E0
8.733553229E0,5.215833783E-1,-5.021999359E0,-2.035822868E0
8.743580052E0,4.558167756E-1,-5.107861042E0,-2.182791710E0
8.753607760E0,3.278416693E-1,-5.358997822E0,-2.434158325E0
8.763635885E0,3.237777650E-1,-5.473859787E0,-2.359691620E0
8.773663437E0,2.654721439E-1,-5.563114643E0,-2.236228466E0
8.783653958E0,7.105359435E-2,-5.580170631E0,-1.883836031E0
8.793646614E0,-2.667400837E-1,-5.459846020E0,-1.370833993E0
8.803642291E0,-5.365821123E-1,-5.389644623E0,-1.236261606E0
8.813641718E0,-8.190119863E-1,-5.187038898E0,-1.597008228E0
8.823644375E0,-9.051743150E-1,-5.065476894E0,-2.199616671E0
8.833650052E0,-6.989452839E-1,-4.998541355E0,-2.791713238E0
8.843660833E0,-5.153886676E-1,-4.869544506E0,-3.225101709E0
8.853676771E0,-3.196856380E-1,-4.744192600E0,-3.326233149E0
8.863696666E0,-2.325012088E-1,-4.507138252E0,-3.186850786E0
8.873721302E0,-3.233794570E-1,-4.189704418E0,-2.130824566E0
8.883749114E0,-5.448259115E-1,-3.854959488E0,-5.663564205E-1
8.893778958E0,-8.364329934E-1,-3.383924007E0,5.284531116E-1
8.903810885E0,-7.204345465E-1,-2.841753006E0,6.204013824E-1
8.913845260E0,-3.655196726E-1,-2.579759121E0,-3.951964378E-1
8.923880260E0,5.560180545E-2,-2.360393524E0,-2.003260612E0
8.933912656E0,3.078071177E-1,-2.215710163E0,-3.054910898E0
8.943930156E0,1.976092160E-1,-1.951283455E0,-3.127903223E0
8.953948698E0,4.071503878E-1,-1.634138107E0,-2.257482052E0
8.963964687E0,7.665696144E-1,-1.262149811E0,-1.814913750E0
8.973981771E0,8.553808331E-1,-6.900620461E-1,-9.313831329E-1
8.983998854E0,9.287776947E-1,-4.321670532E-2,1.177846909E0
8.994016979E0,1.277714133E0,3.696880341E-1,3.200501442E0
9.004033489E0,1.891392469E0,8.159189224E-1,4.602135181E0
9.014051093E0,2.202887058E0,1.545477867E0,4.906882286E0
9.024068281E0,1.519944668E0,2.826928139E0,4.505575657E0
9.034085312E0,1.228562593E0,3.457322121E0,3.561617374E0
9.044102343E0,8.962866068E-1,4.138377190E0,2.802760124E0
9.054120468E0,1.817382872E-1,5.614591599E0,2.402767658E0
9.064139583E0,-8.067940474E-1,7.345201492E0,2.512453556E0
9.074159583E0,-7.641464472E-1,8.199101448E0,3.156643867E0
9.084154166E0,-3.959113955E-1,9.544087410E0,4.471158981E0
9.094149635E0,-2.559756637E-1,1.152190876E1,5.516259193E0
9.104146823E0,2.089463621E-1,1.311038208E1,5.558349609E0
9.114146458E0,9.772206545E-1,1.340171337E1,4.886570454E0
9.124149843E0,1.683276534E0,1.345956802E1,4.537129879E0
9.134157396E0,2.155935049E0,1.382533455E1,5.484724045E0
9.144168646E0,1.280403137E0,1.438336754E1,7.355145931E0
9.154185468E0,-8.762571216E-1,1.579405594E1,1.018582344E1
9.164206562E0,-3.504539490E0,1.715859222E1,1.297631454E1
9.174232708E0,-5.088847160E0,1.730039597E1,1.494399357E1
9.184262239E0,-4.547192574E0,1.662753677E1,1.512121391E1
9.194295677E0,-2.844388247E0,1.505854130E1,1.405333900E1
9.204331093E0,-1.060115695E0,1.328732586E1,1.295646000E1
9.214368750E0,4.367432892E-1,1.151501179E1,1.215526962E1
9.224406666E0,1.390236735E0,9.969536781E0,1.145181656E1
9.234445104E0,1.698218107E0,8.723685265E0,1.036371994E1
9.244448073E0,1.552449703E0,7.535026550E0,8.508153915E0
9.254452656E0,1.021139503E0,6.555133820E0,5.957508564E0
9.264458229E0,1.827439666E-2,5.688950539E0,3.881029129E0
9.274466354E0,-1.191104174E0,4.620656013E0,2.982166290E0
9.284476146E0,-2.238302469E0,3.750433922E0,2.599347591E0
9.294488906E0,-2.832851171E0,2.986407280E0,2.840965748E0
9.304503646E0,-2.727071285E0,2.255431175E0,3.048151493E0
9.314521510E0,-2.379361153E0,1.769054413E0,2.501922131E0
9.324540521E0,-1.599137783E0,1.617945671E0,1.519147396E0
9.334562343E0,-8.984475732E-1,1.598102570E0,4.356441498E-1
9.344584896E0,-1.341579854E-1,1.492005348E0,-3.670015335E-1
9.354609687E0,3.300428987E-1,1.353893280E0,-9.217114449E-1
9.364635260E0,4.063342214E-1,1.317276955E0,-1.214399338E0
9.374662343E0,3.628760278E-1,1.299714088E0,-1.210541248E0
9.384689427E0,2.696497738E-1,1.291212082E0,-1.115740776E0
9.394689323E0,2.583035827E-1,1.275958061E0,-4.921541214E-1
9.404690573E0,2.273077220E-1,1.157996178E0,-3.533606529E-1
9.414694843E0,3.035866916E-1,1.195964813E0,3.238630295E-1
9.424701458E0,4.177677929E-1,1.079771042E0,1.403457642E0
9.434711823E0,7.638181448E-1,9.545946121E-1,1.921716690E0
9.444724323E0,1.147052646E0,8.578643799E-1,1.929578304E0
9.454740885E0,1.372112036E0,9.201793671E-1,1.338769913E0
9.464760208E0,1.381424904E0,9.762229919E-1,9.676451683E-1
9.474783177E0,1.241997957E0,8.792991638E-1,8.602371216E-1
9.484808385E0,9.883287549E-1,8.268938065E-1,6.070427895E-1
9.494836510E0,6.207877398E-1,1.054163933E0,5.834550858E-1
9.504865885E0,3.281950355E-1,1.115303040E0,1.081882000E0
9.514897083E0,2.602866292E-1,1.061839104E0,1.353969097E0
9.524928385E0,9.523874521E-2,9.984788895E-1,1.530917168E0
9.534960312E0,3.078998625E-2,8.620977402E-1,1.906880379E0
9.544948333E0,7.139471173E-2,6.654176712E-1,2.069779873E0
9.554939271E0,1.258685291E-1,3.834018707E-1,1.942024231E0
9.564932968E0,1.118721962E-1,-7.438278198E-2,1.442937374E0
9.574931354E0,1.779901236E-1,-6.153507233E-1,8.525595665E-1
9.584933229E0,3.151243329E-1,-1.094559669E0,2.350809574E-1
9.594939062E0,3.850450218E-1,-1.596648216E0,-5.515544415E-1
9.604949166E0,4.085454047E-1,-2.186590195E0,-1.305942535E0
9.614963646E0,5.058439970E-1,-2.752921104E0,-1.697090149E0
9.624983125E0,5.414487720E-1,-3.266481876E0,-1.871050000E0
9.635008385E0,5.387248993E-1,-3.703491688E0,-1.924337506E0
9.645037135E0,5.115061998E-1,-4.088219643E0,-1.890529156E0
9.655070521E0,4.507198632E-1,-4.421047688E0,-1.645056963E0
9.665106666E0,4.338213503E-1,-4.731987000E0,-1.256968737E0
9.675145781E0,3.373760581E-1,-5.013398170E0,-9.605915546E-1
9.685185781E0,1.481508017E-1,-5.199930191E0,-7.325429916E-1
9.695226771E0,-1.007972062E-1,-5.250315666E0,-4.157271385E-1
9.705242031E0,-2.880356312E-1,-5.299790859E0,-4.091086388E-1
9.715258437E0,-4.877901375E-1,-5.371978760E0,-7.031528950E-1
9.725274896E0,-6.440064907E-1,-5.283367157E0,-1.292504072E0
9.735292552E0,-8.721801043E-1,-5.256852627E0,-1.871607065E0
9.745310208E0,-1.039857149E0,-5.290582180E0,-2.450343132E0
9.755328958E0,-8.298723102E-1,-5.460346222E0,-2.189753532E0
9.765345573E0,-6.726470590E-1,-5.755741119E0,-2.512166023E0
9.775363281E0,-6.057814360E-1,-5.813602448E0,-2.387704849E0
9.785380156E0,-5.699788332E-1,-5.888383865E0,-2.303107738E0
9.795398125E0,-4.207254350E-1,-5.952303886E0,-1.930477977E0
9.805414896E0,-2.435119152E-1,-6.010452271E0,-1.704492569E0
9.815432760E0,-1.683751643E-1,-6.000667572E0,-1.519318104E0
9.825449166E0,-1.974332631E-1,-5.976414680E0,-1.124008179E0
9.835466666E0,-1.770592034E-1,-5.886321068E0,-7.116739750E-1
9.845484010E0,-1.032803655E-1,-5.841314316E0,-6.479806900E-1
9.855502396E0,-1.011601985E-1,-5.746116638E0,-6.154682636E-1
9.865518489E0,-1.535293162E-1,-5.553120613E0,-8.720765114E-1
9.875535677E0,-1.521436572E-1,-5.414983749E0,-1.146245480E0
9.885552864E0,-1.190555394E-1,-5.125332355E0,-1.574152112E0
9.895555521E0,-1.127142012E-1,-5.089693069E0,-2.388057709E0
9.905559323E0,1.033016443E-1,-4.975772858E0,-2.727531433E0
9.915565833E0,2.580035925E-1,-4.686470985E0,-3.076836348E0
9.925574323E0,1.375021338E-1,-4.187109470E0,-3.450697422E0
9.935586146E0,-9.243994951E-2,-3.688458920E0,-3.041863918E0
9.945600260E0,-3.083401620E-1,-3.240341187E0,-2.429059029E0
9.955617812E0,-4.459057450E-1,-2.930053234E0,-2.153518438E0
9.965637552E0,-2.324811518E-1,-2.596039295E0,-2.119553566E0
9.975660364E0,1.132647395E-1,-2.544959545E0,-2.486470222E0
9.985684843E0,1.128438711E-1,-2.269728184E0,-2.731139660E0
9.995711718E0,3.376501799E-1,-1.534731865E0,-2.888842583E0
1.000573943E1,-1.581588387E-2,-7.985954285E-1,-3.058239222E0
1.001576859E1,-7.512515187E-1,-4.523353577E-1,-3.255889177E0
1.002579479E1,-5.382112265E-1,-2.740306854E-1,-3.316852570E0
1.003582167E1,3.265923262E-2,1.049585342E-1,-2.495839119E0
1.004582911E1,-5.087947845E-1,5.922288895E-1,-1.804686546E0
1.005583802E1,-9.750591516E-1,6.679449081E-1,-1.105410814E0
1.006584760E1,-9.986758232E-1,5.562686920E-1,-9.009933472E-1
