"Time (s)","Linear Acceleration x (m/s^2)","Linear Acceleration y (m/s^2)","Linear Acceleration z (m/s^2)"
4.613265500E-2,-3.385901451E-1,1.225170135E0,-6.641973495E0
5.613265500E-2,-4.569456354E-2,-1.316461563E-1,-6.994322777E0
6.613265500E-2,-2.698504180E-2,-3.006052971E-1,-7.002996922E0
7.613265500E-2,1.083883196E-1,-8.302607536E-1,-6.918179512E0
8.613265500E-2,-9.761452675E-4,-1.358361244E0,-6.824463844E0
9.613265500E-2,-1.875136048E-1,-1.993990898E0,-7.082564354E0
1.061326550E-1,-2.190647870E-1,-2.165061951E0,-7.100441933E0
1.161326550E-1,-2.523078620E-1,-2.600894451E0,-7.073184967E0
1.261326550E-1,-1.234492660E-1,-2.963124990E0,-6.831625462E0
1.361326550E-1,1.089547276E-1,-3.710836411E0,-7.068436146E0
1.461323210E-1,7.446926832E-2,-3.813151836E0,-7.210586548E0
1.561327210E-1,1.642024517E-2,-4.080296516E0,-7.743182659E0
1.661327210E-1,-1.116860658E-1,-4.201048851E0,-7.871278286E0
1.761328040E-1,-2.622419596E-1,-4.387485027E0,-7.837752819E0
1.861328040E-1,-3.892148435E-1,-4.447562695E0,-7.782102585E0
1.961328040E-1,-5.917268395E-1,-4.447090626E0,-7.705611229E0
2.061328040E-1,-7.365640402E-1,-4.343882561E0,-7.664855480E0
2.161328040E-1,-5.828120708E-1,-4.133575439E0,-7.542069435E0
2.261328620E-1,-4.684915245E-1,-3.998577118E0,-7.389490604E0
2.361328620E-1,-3.505173326E-1,-3.707831621E0,-7.227499008E0
2.461328620E-1,-3.084241748E-1,-3.468133926E0,-7.189381123E0
2.561338620E-1,-5.630171895E-1,-2.811277390E0,-7.075466633E0
2.661338620E-1,-6.203588247E-1,-2.655121803E0,-7.064432144E0
2.761338620E-1,-7.790064812E-1,-2.225048065E0,-7.183738232E0
2.861338620E-1,-1.067426682E0,-1.772363663E0,-7.404222488E0
2.961338620E-1,-1.382152796E0,-9.169697762E-1,-8.242869377E0
3.061339020E-1,-1.397170544E0,-8.397884369E-1,-8.333942413E0
3.161339020E-1,-1.333902359E0,-6.055693626E-1,-8.581675529E0
3.261339020E-1,-1.276153922E0,-3.426804543E-1,-8.534715652E0
3.361339020E-1,-1.019563437E0,-8.477020264E-2,-8.449417114E0
3.461339020E-1,-9.564312696E-1,-9.991741180E-2,-8.431338310E0
3.561339020E-1,-8.653447628E-1,-1.291027069E-1,-8.277580261E0
3.661339020E-1,-7.757679224E-1,-2.384386063E-1,-7.919784546E0
3.761339020E-1,-5.862914324E-1,-3.962283134E-1,-7.516580582E0
3.861339020E-1,-3.825770319E-1,-5.240726471E-1,-7.210859776E0
3.961339350E-1,-1.854826808E-1,-6.564564705E-1,-6.910476208E0
4.061339350E-1,-2.920567989E-3,-8.063569069E-1,-6.616639614E0
4.161339350E-1,1.271161437E-2,-9.395089149E-1,-6.344185829E0
4.261339350E-1,-6.437310576E-2,-9.998064041E-1,-6.213651657E0
4.361335350E-1,-2.465422750E-1,-1.081732750E0,-6.283574581E0
4.461336350E-1,-2.162428498E-1,-1.041764736E0,-6.498588085E0
4.561335010E-1,-4.170022905E-2,-1.033999920E0,-6.738032818E0
4.661335340E-1,2.934080362E-2,-9.927196503E-1,-6.888098717E0
4.761335000E-1,-7.492445409E-2,-8.823127747E-1,-7.331643581E0
4.861331330E-1,-5.814589560E-2,-6.859970093E-1,-7.642603874E0
4.961331330E-1,9.739684314E-2,-3.382225037E-1,-7.800314903E0
5.061331330E-1,1.324199289E-1,-2.212319374E-1,-7.800539017E0
5.161331330E-1,1.963461637E-1,-9.769630432E-2,-7.635748863E0
5.261330990E-1,1.897737980E-1,7.910680771E-2,-7.309600830E0
5.361330990E-1,2.379202843E-1,3.120641708E-1,-7.062030792E0
5.461330990E-1,2.601151466E-1,3.799591064E-1,-7.119884491E0
5.561324320E-1,2.029563785E-1,6.714153290E-1,-7.151445389E0
5.661324320E-1,2.324234545E-1,9.294261932E-1,-7.175271511E0
5.761324320E-1,1.460505426E-1,1.226166248E0,-7.186962605E0
5.861324320E-1,-3.176256269E-2,1.514111996E0,-7.299396992E0
5.961324320E-1,-1.942632198E-1,1.858405590E0,-7.367007732E0
6.061323980E-1,-1.922804564E-1,2.095359325E0,-7.426938057E0
6.161323980E-1,-2.952750921E-1,2.151994228E0,-7.305441380E0
6.261323980E-1,-2.243295610E-1,2.194184303E0,-7.050930977E0
6.361323980E-1,1.257251054E-1,2.391891956E0,-6.191683769E0
6.461323980E-1,3.060135841E-1,2.460744858E0,-5.688762665E0
6.561323980E-1,3.765721023E-1,2.584322929E0,-5.782401085E0
6.661323980E-1,3.678447604E-1,2.668652534E0,-5.867326736E0
6.761324310E-1,3.722716272E-1,2.798424244E0,-6.028156757E0
6.861324310E-1,4.939443767E-1,2.896673203E0,-6.139533043E0
6.961320640E-1,4.827933311E-1,3.034143448E0,-6.204874516E0
7.061320640E-1,4.599005580E-1,3.067186356E0,-6.245839596E0
7.161320640E-1,4.297381043E-1,3.148998737E0,-6.114041328E0
7.261320640E-1,4.800989628E-1,3.267768383E0,-5.991641998E0
7.361320640E-1,6.747169495E-1,3.420214176E0,-6.016995430E0
7.461320640E-1,7.061249018E-1,3.467762947E0,-5.986807823E0
7.561320640E-1,7.127617598E-1,3.481080532E0,-5.995202065E0
7.661320300E-1,6.311169863E-1,3.767213821E0,-5.920438766E0
7.761320300E-1,3.906876445E-1,4.134742260E0,-6.083374023E0
7.861328960E-1,1.750538647E-1,4.352686405E0,-5.807269096E0
7.961328960E-1,-5.315080285E-2,4.392473698E0,-5.488754272E0
8.061328960E-1,-2.108531594E-1,4.491849422E0,-5.162667274E0
8.161328960E-1,-3.485547006E-1,4.669335842E0,-5.064314842E0
8.261328960E-1,-1.623518765E-1,4.798418999E0,-5.241307735E0
8.361329290E-1,1.146112978E-1,4.935908318E0,-5.433978081E0
8.461329290E-1,3.463987708E-1,5.125326157E0,-5.488375664E0
8.561327290E-1,7.979542017E-1,5.262699604E0,-5.678222656E0
8.661327620E-1,8.221414685E-1,5.277687550E0,-5.731322289E0
8.761327950E-1,7.915599942E-1,5.413409710E0,-5.739283085E0
8.861327950E-1,5.536510348E-1,5.588629723E0,-5.678222179E0
8.961327950E-1,-1.600813866E-2,5.890008926E0,-5.883743286E0
9.061327950E-1,-1.661326885E-1,5.939109802E0,-5.876920700E0
9.161327950E-1,-4.130312800E-1,6.094032288E0,-5.953222275E0
9.261328280E-1,-3.644055724E-1,6.142468452E0,-5.964898109E0
9.361328280E-1,-1.688902974E-1,6.396846771E0,-5.304790974E0
9.461328610E-1,-1.525224447E-1,6.405856609E0,-5.309538364E0
9.561328610E-1,1.317935288E-1,6.580984116E0,-4.840140820E0
9.661328610E-1,4.557569921E-1,6.752835751E0,-4.545159340E0
9.761330940E-1,5.824151635E-1,6.911926270E0,-4.710415840E0
9.861330940E-1,5.424708128E-1,6.993113041E0,-4.741694450E0
9.961334270E-1,4.749757946E-1,7.173881531E0,-4.635768890E0
1.006133427E0,5.852112174E-1,7.226551533E0,-4.487470627E0
1.016133427E0,3.858703673E-1,7.233469963E0,-4.022167206E0
1.026133427E0,3.534839153E-1,7.240352631E0,-3.979802132E0
1.036133827E0,4.156387448E-1,7.392347813E0,-4.123663425E0
1.046133827E0,3.516197801E-1,7.574737549E0,-4.416472435E0
1.056133827E0,2.671796978E-1,7.553760052E0,-5.160437584E0
1.066133827E0,2.774249911E-1,7.589641571E0,-5.273085117E0
1.076133827E0,4.923647642E-1,7.649785519E0,-5.395799637E0
1.086133260E0,8.044021130E-1,7.733424187E0,-5.292580605E0
1.096132860E0,1.228909016E0,8.089513779E0,-5.557077408E0
1.106132593E0,1.223661542E0,8.187800407E0,-5.623237610E0
1.116132593E0,1.190050602E0,8.426669121E0,-5.769100666E0
1.126132593E0,1.430104971E0,8.780260086E0,-5.698069096E0
1.136132559E0,1.087864280E0,9.610361099E0,-5.800448895E0
1.146132559E0,1.041968584E0,9.696162224E0,-5.787939548E0
1.156132759E0,5.932537913E-1,1.030265999E1,-5.615575790E0
1.166132725E0,2.469788492E-1,1.098647118E1,-5.554161072E0
1.176132691E0,6.203812361E-2,1.163059902E1,-5.551494598E0
1.186132691E0,3.419470787E-1,1.193052959E1,-5.144332886E0
1.196132691E0,6.520678401E-1,1.201370430E1,-4.452579021E0
1.206132691E0,9.550375938E-1,1.192606735E1,-3.841009140E0
1.216132691E0,1.188333511E0,1.197984695E1,-3.177349091E0
1.226132657E0,1.126368999E0,1.197803116E1,-2.881434917E0
1.236131757E0,6.205564737E-1,1.182651901E1,-3.046924114E0
1.246131723E0,1.104907095E-1,1.175568962E1,-3.541414261E0
1.256131723E0,3.461751342E-2,1.143768787E1,-3.913478374E0
1.266131723E0,7.722991705E-2,1.130862999E1,-4.045488358E0
1.276131456E0,2.747324705E-1,1.094244671E1,-4.121914387E0
1.286131456E0,5.712962151E-1,1.043520927E1,-3.896188259E0
1.296131489E0,9.220221043E-1,9.814475060E0,-4.317971230E0
1.306131522E0,9.083701372E-1,9.689472198E0,-4.378365993E0
1.316131522E0,8.901933432E-1,9.207780838E0,-4.828254223E0
1.326131522E0,8.436751366E-1,8.823080063E0,-5.161884785E0
1.336131522E0,8.197890520E-1,8.342109680E0,-4.852282524E0
1.346131522E0,7.679530382E-1,8.231149673E0,-4.865561485E0
1.356131522E0,6.433254480E-1,8.068967819E0,-5.205154896E0
1.366131522E0,4.985965192E-1,7.911261082E0,-5.549062729E0
1.376131522E0,4.244315922E-1,7.907620430E0,-5.658572197E0
1.386131588E0,4.301720262E-1,7.800503731E0,-5.711583138E0
1.396131988E0,4.361287951E-1,7.642170429E0,-5.736607552E0
1.406132254E0,2.453905493E-1,7.399616241E0,-5.700460434E0
1.416132254E0,2.316347063E-1,7.369402409E0,-5.679570198E0
1.426132287E0,-4.722037911E-2,7.051027298E0,-5.614075661E0
1.436132287E0,-5.201009512E-1,6.597054958E0,-5.453268051E0
1.446132287E0,-7.168697715E-1,6.377434254E0,-5.457320213E0
1.456132287E0,-6.043859720E-1,5.971336842E0,-5.502828121E0
1.466132287E0,-5.813416243E-1,5.885801792E0,-5.474426746E0
1.476132287E0,-4.152804315E-1,5.651569843E0,-5.532394409E0
1.486132287E0,-2.982908785E-1,5.304165840E0,-5.743378639E0
1.496132287E0,-1.449306011E-1,4.783238411E0,-5.994379044E0
1.506132320E0,-1.883518845E-1,4.668860912E0,-6.005702972E0
1.516132320E0,-1.810779572E-1,4.319634438E0,-6.115066528E0
1.526132320E0,-2.290033996E-1,3.893931866E0,-6.286767006E0
1.536133220E0,-4.346915483E-1,2.987591743E0,-6.612096786E0
1.546133220E0,-4.498896897E-1,2.812641621E0,-6.574296951E0
1.556133220E0,-4.018574059E-1,2.181304455E0,-6.531818390E0
1.566133220E0,-3.466381431E-1,1.615598202E0,-6.460798740E0
1.576133220E0,-3.333629370E-1,8.501238823E-1,-6.488805294E0
1.586133220E0,-2.366415709E-1,2.905454636E-1,-6.606019497E0
1.596133186E0,-5.429398268E-2,-2.911429405E-1,-6.748172283E0
1.606133152E0,3.875525296E-2,-9.164018631E-1,-6.893795013E0
1.616133152E0,3.739020824E-1,-1.398562908E0,-7.011734486E0
1.626133152E0,4.181470871E-1,-1.721521378E0,-7.171168327E0
1.636133152E0,3.172882199E-1,-2.020490646E0,-7.516681194E0
1.646133152E0,1.650171280E-1,-2.292622566E0,-8.003478050E0
1.656133152E0,1.208527386E-1,-2.713019371E0,-8.372469902E0
1.666133185E0,1.273416579E-1,-2.835129261E0,-8.282328606E0
1.676133218E0,2.050817907E-1,-3.074142694E0,-7.839933872E0
1.686133218E0,2.012398541E-1,-3.226047039E0,-7.431539536E0
1.696133218E0,-1.219874620E-2,-3.389647007E0,-7.061648846E0
1.706133218E0,-3.123188019E-2,-3.429015398E0,-7.043527603E0
1.716133218E0,-1.281397641E-1,-3.482011557E0,-6.944816113E0
1.726133184E0,-1.278533340E-1,-3.498323202E0,-6.808650017E0
1.736133184E0,-2.504223585E-2,-3.573360682E0,-6.395968437E0
1.746133184E0,-4.065117240E-2,-3.602187872E0,-6.333773613E0
1.756133184E0,-7.318097353E-2,-3.687197924E0,-6.263618469E0
1.766133184E0,-9.224545956E-2,-3.774288893E0,-6.581863403E0
1.776133184E0,-1.993699074E-1,-3.755780935E0,-7.060846806E0
1.786133184E0,-3.757425249E-1,-3.722296953E0,-7.253046036E0
1.796133184E0,-5.298916101E-1,-3.712363005E0,-7.378494740E0
1.806133150E0,-6.243975163E-1,-3.598334789E0,-7.454655647E0
1.816133150E0,-7.917079926E-1,-3.334825277E0,-7.747139931E0
1.826133150E0,-7.998644114E-1,-3.187895298E0,-7.989888191E0
1.836133150E0,-7.570906878E-1,-2.979805946E0,-8.425268173E0
1.846133150E0,-6.906019449E-1,-2.723964214E0,-8.829221725E0
1.856133150E0,-6.846191883E-1,-2.159735680E0,-9.349666595E0
1.866133150E0,-6.791685820E-1,-2.078697681E0,-9.392148018E0
1.876133150E0,-6.668750048E-1,-1.731891632E0,-9.480470657E0
1.886133150E0,-6.495464444E-1,-1.325499058E0,-9.317712784E0
1.896133150E0,-4.307850301E-1,-9.139537811E-1,-8.820756912E0
1.906133316E0,-3.615833223E-1,-8.459186554E-1,-8.624837875E0
1.916133316E0,-2.328570038E-1,-6.903862953E-1,-8.081017494E0
1.926133349E0,-1.369647384E-1,-5.890235901E-1,-7.440001965E0
1.936133349E0,-7.863283157E-3,-4.449896812E-1,-6.271561146E0
1.946133382E0,7.150322199E-3,-3.822026253E-1,-6.180013657E0
1.956133382E0,2.865722775E-2,-3.118615150E-1,-5.781424522E0
1.966133348E0,5.316270888E-2,-1.679620743E-1,-5.658747673E0
1.976133314E0,-1.222463325E-1,2.479982376E-2,-5.914187431E0
1.986133314E0,-2.021688819E-1,1.906237602E-1,-6.184812069E0
1.996133314E0,-2.313664854E-1,3.776121140E-1,-6.514038086E0
2.006133314E0,-2.205181122E-2,4.599866867E-1,-6.749785900E0
2.016133314E0,2.819765806E-1,4.633531570E-1,-6.742811680E0
2.026133314E0,4.043785632E-1,4.009737968E-1,-6.664302826E0
2.036133314E0,5.239415765E-1,1.918277740E-1,-6.502602577E0
2.046133314E0,7.311394215E-1,1.019668579E-2,-6.393724918E0
2.056133314E0,6.203134060E-1,-1.712379456E-1,-6.133321762E0
2.066133314E0,5.897634625E-1,-1.638956070E-1,-6.197413445E0
2.076133314E0,5.321384668E-1,-1.323928833E-1,-6.369074821E0
2.086133314E0,4.474034905E-1,-7.653617859E-2,-6.943493843E0
2.096133314E0,1.783406138E-1,4.638142586E-1,-8.563334465E0
2.106133314E0,1.250007451E-1,5.750818253E-1,-8.741998672E0
2.116133314E0,-1.487079263E-1,9.308686256E-1,-9.076093674E0
2.126133314E0,-2.425222993E-1,1.309941292E0,-8.914318085E0
2.136133314E0,-4.639591277E-1,1.882381439E0,-7.343768120E0
2.146133347E0,-4.153836966E-1,2.027605534E0,-7.124341488E0
2.156133347E0,-3.184611201E-1,2.346978188E0,-6.047564030E0
2.166133347E0,-2.195790112E-1,2.616745949E0,-5.375714302E0
2.176133380E0,-1.136749834E-1,2.824873924E0,-5.002557278E0
2.186133380E0,-5.403122306E-2,2.901483059E0,-5.033997059E0
2.196133380E0,-4.326550663E-2,3.066912651E0,-5.315676689E0
2.206133213E0,-2.817942202E-2,3.249274731E0,-5.732020855E0
2.216133213E0,-2.577791810E-1,3.814693928E0,-6.315717220E0
2.226133179E0,-4.431398511E-1,4.298604012E0,-6.620672226E0
2.236133179E0,-8.093193173E-1,4.943003654E0,-6.823460579E0
2.246133145E0,-9.127722979E-1,5.443299770E0,-6.701170444E0
2.256133145E0,-4.471738636E-1,6.050977230E0,-6.245208263E0
2.266133145E0,-3.192479014E-1,6.137740612E0,-6.054325104E0
2.276133145E0,1.176363453E-1,6.194505692E0,-5.534739494E0
2.286133145E0,2.520416677E-1,6.186024189E0,-5.199124336E0
2.296133145E0,5.337423682E-1,6.169768333E0,-4.777630806E0
2.306133178E0,5.850129128E-1,6.200589657E0,-4.742537498E0
2.316133178E0,8.016420007E-1,6.051087379E0,-4.811336040E0
2.326133178E0,6.142968535E-1,5.800945759E0,-5.168828487E0
2.336133178E0,-9.149513394E-2,5.661800861E0,-5.300889015E0
2.346133411E0,-1.452897042E-1,5.612858295E0,-5.322919846E0
2.356133411E0,-3.261342049E-1,5.353830814E0,-5.530319214E0
2.366133411E0,-4.396390915E-1,4.996890068E0,-5.872533798E0
2.376133411E0,-4.493703544E-1,4.600988388E0,-6.094396114E0
2.386133411E0,-3.687764108E-1,4.328809261E0,-6.178346157E0
2.396133411E0,-1.000301093E-1,3.921394348E0,-6.405963421E0
2.406133411E0,2.109372169E-1,3.702412128E0,-6.588499069E0
2.416133411E0,5.483136773E-1,3.419209003E0,-6.817805290E0
2.426133444E0,6.769021153E-1,3.330250263E0,-6.782579422E0
2.436133444E0,8.067129254E-1,3.349036217E0,-6.930356503E0
2.446133410E0,7.794418931E-1,3.343158722E0,-7.152881622E0
2.456133410E0,3.825562298E-1,3.691675186E0,-7.003008842E0
2.466133410E0,3.436199725E-1,3.781733036E0,-6.779365540E0
2.480121576E0,3.190101981E-1,4.140848637E0,-6.108997822E0
2.490121576E0,3.968853354E-1,4.379818916E0,-5.737880707E0
2.500121576E0,5.036315918E-1,4.744280815E0,-5.419353485E0
2.510121609E0,4.755210280E-1,4.901514053E0,-5.446210861E0
2.520121609E0,3.976943195E-1,5.299920082E0,-5.491619587E0
2.530121609E0,3.497363329E-1,5.571230412E0,-5.390681267E0
2.540121609E0,3.280564845E-1,6.082082272E0,-5.289687157E0
2.550121609E0,3.170601726E-1,6.151722908E0,-5.288667679E0
2.560121609E0,2.304552197E-1,6.407557964E0,-5.191390038E0
2.570121609E0,1.307626516E-1,6.725758076E0,-5.086904049E0
2.580121609E0,8.078882098E-2,7.199325562E0,-4.960619926E0
2.590121609E0,9.824286401E-2,7.435486317E0,-4.735835552E0
2.600121609E0,-2.813640237E-2,7.829330921E0,-4.628033161E0
2.610121575E0,-1.619994938E-1,8.147573471E0,-4.713109970E0
2.620121575E0,-1.427605748E-1,8.519695282E0,-4.750261307E0
2.630121575E0,-2.407060564E-2,8.778083801E0,-4.775479317E0
2.640121575E0,1.226719320E-1,8.990651131E0,-4.820474148E0
2.650121341E0,4.153549075E-1,9.206031799E0,-5.038959503E0
2.660121341E0,7.356817722E-1,9.575257301E0,-5.076524734E0
2.670121374E0,7.792571187E-1,9.706057549E0,-5.053486824E0
2.680121407E0,9.121558666E-1,1.011384773E1,-5.077831268E0
2.690121407E0,9.723491669E-1,1.054990292E1,-4.994125366E0
2.700121407E0,1.265605211E0,1.106960678E1,-4.680491447E0
2.710121407E0,1.246348858E0,1.113563156E1,-4.556771278E0
2.720121407E0,1.203730345E0,1.137418938E1,-4.077882290E0
2.730121373E0,1.145122647E0,1.137604809E1,-3.684423923E0
2.740121373E0,1.038561106E0,1.130194092E1,-3.120977879E0
2.750121373E0,1.079306602E0,1.125042343E1,-3.036610126E0
2.760121373E0,1.191799164E0,1.113952637E1,-2.976699352E0
2.770121373E0,1.174285173E0,1.113427067E1,-2.973198414E0
2.780121373E0,9.488457441E-1,1.084632587E1,-4.091545582E0
2.790121373E0,6.445389986E-1,1.076511002E1,-4.461019516E0
2.800121373E0,3.250038624E-1,1.081413651E1,-4.408205986E0
2.810121339E0,4.154635221E-2,1.076126289E1,-4.315313816E0
2.820121339E0,-3.205510080E-1,1.060113716E1,-4.272902012E0
2.830121372E0,-4.255754948E-1,1.044336510E1,-4.278217793E0
2.840121372E0,-3.243325651E-1,1.015856171E1,-4.082189083E0
2.850121372E0,-6.877407432E-3,9.765296936E0,-3.933413506E0
2.860121372E0,5.790184140E-1,9.021614075E0,-4.201534271E0
2.870121372E0,6.867818832E-1,8.843103409E0,-4.298639774E0
2.880121372E0,8.074747324E-1,8.496046066E0,-4.631192684E0
2.890121372E0,7.365889549E-1,8.137016296E0,-5.032169342E0
2.900121372E0,3.389981389E-1,7.846926689E0,-5.253814697E0
2.910121372E0,2.694739699E-1,7.733467579E0,-5.283302307E0
2.920121372E0,1.413416415E-1,7.480807781E0,-5.470224857E0
2.930121405E0,8.259513974E-2,7.246935844E0,-5.508029461E0
2.940121405E0,1.206498593E-1,6.788398743E0,-5.500174522E0
2.950121038E0,1.431564093E-1,6.692359924E0,-5.490200043E0
2.960121038E0,2.737419009E-1,6.350589275E0,-5.621722221E0
2.970121004E0,3.041639924E-1,6.043312073E0,-5.753623962E0
2.980120970E0,3.230782449E-1,5.681456089E0,-5.971796513E0
2.990120970E0,3.094812632E-1,5.420816422E0,-6.034576416E0
3.000120970E0,2.456151694E-1,5.149288654E0,-6.052417755E0
3.010120970E0,4.636311531E-2,4.962947369E0,-5.886686802E0
3.020120970E0,-1.155390888E-1,4.734674931E0,-5.901114464E0
3.030120970E0,-1.329307258E-1,4.532205105E0,-5.893220425E0
3.040120970E0,-1.613989174E-1,4.295824528E0,-5.910986900E0
3.050120970E0,-1.023482531E-1,3.963163376E0,-5.939946175E0
3.060120970E0,-1.753259599E-1,3.210913181E0,-6.049434662E0
3.070120870E0,-1.779144406E-1,3.001181126E0,-6.035649776E0
3.080120870E0,-5.807940662E-2,2.517403603E0,-6.176147461E0
3.090120870E0,8.812361956E-2,2.015582085E0,-6.240885735E0
3.100120870E0,3.053596318E-1,1.265436172E0,-6.531410217E0
3.110120870E0,2.953144908E-1,1.111777782E0,-6.601973534E0
3.120120870E0,4.353352487E-1,2.130341530E-1,-6.697429657E0
3.130120836E0,4.144230783E-1,-3.424725533E-1,-6.707412243E0
3.140120836E0,3.935576975E-1,-3.814110756E-1,-6.665436745E0
3.150120836E0,1.852488518E-1,-8.841028214E-1,-7.155441284E0
3.160120836E0,-8.929967880E-4,-1.157205105E0,-7.364804268E0
3.170120836E0,-1.709022224E-1,-1.426594257E0,-7.470035553E0
3.180120869E0,-2.252263725E-1,-1.702415943E0,-7.360656738E0
3.190120869E0,-2.438552380E-1,-1.904749870E0,-7.061674595E0
3.200120869E0,-1.987209171E-1,-2.146121502E0,-6.692863464E0
3.210120869E0,-7.852497697E-2,-2.481263638E0,-6.376734734E0
3.220120869E0,2.209360003E-1,-2.898972034E0,-5.575549126E0
3.230120835E0,2.900191545E-1,-3.148997784E0,-5.085769653E0
3.240120835E0,3.062383533E-1,-3.586666822E0,-4.738646984E0
3.250121201E0,4.192509651E-1,-3.950640678E0,-4.790338516E0
3.260121201E0,2.446764708E-1,-4.427263737E0,-5.470922947E0
3.270121201E0,1.340608001E-1,-4.458655834E0,-5.636136532E0
3.280121201E0,-1.757462919E-1,-4.585492134E0,-6.098577023E0
3.290121201E0,-5.697472095E-1,-4.794841766E0,-6.553193092E0
3.300121201E0,-9.273048043E-1,-4.941666603E0,-6.561285019E0
3.310120934E0,-9.187687635E-1,-4.962599754E0,-6.537664890E0
3.320120934E0,-8.559722304E-1,-4.813529015E0,-6.413443089E0
3.330120934E0,-5.819509029E-1,-4.623692036E0,-6.456372738E0
3.340120934E0,-3.621292710E-1,-4.037725925E0,-6.521404266E0
3.350120934E0,-3.321799934E-1,-3.985838413E0,-6.525896072E0
3.360120934E0,-1.892240942E-1,-3.578819752E0,-6.731541157E0
3.370121034E0,-2.415598333E-1,-3.047898769E0,-7.246669292E0
3.380121034E0,-3.515229821E-1,-2.399497509E0,-7.880229950E0
3.390121034E0,-6.200283766E-1,-1.831938744E0,-8.375456810E0
3.400121034E0,-5.960951447E-1,-1.867897987E0,-8.332214355E0
3.410121034E0,-1.318859220E0,-5.545678139E-1,-8.918961525E0
3.420121034E0,-1.327146769E0,-1.488332748E-1,-8.734342575E0
3.430121034E0,-1.193547726E0,-4.482269287E-5,-8.269177437E0
3.440121034E0,-9.376197457E-1,1.812067032E-1,-7.585483551E0
3.450121034E0,-6.568288803E-1,2.538537979E-1,-7.041983128E0
3.460121034E0,-3.425887227E-1,2.296504974E-1,-6.278615952E0
3.470121034E0,-2.536497712E-1,2.388792038E-1,-6.088494778E0
3.480121000E0,-1.779375225E-1,1.178727150E-1,-5.500865459E0
3.490121000E0,-1.005962193E-1,-1.990032196E-2,-5.289525509E0
3.500121000E0,-3.349822760E-2,-2.958626747E-1,-5.289455414E0
3.510121033E0,-1.036402583E-2,-3.061566353E-1,-5.322521210E0
3.520121033E0,6.447714567E-2,-4.678883553E-1,-5.450333118E0
3.530121033E0,6.349384785E-2,-5.544242859E-1,-5.638367176E0
3.540121033E0,1.000919938E-2,-7.668666840E-1,-6.217051029E0
3.550120633E0,2.581775188E-2,-7.881917953E-1,-6.347217560E0
3.560120633E0,7.903456688E-3,-9.518141747E-1,-6.545722485E0
3.570120633E0,5.569690466E-2,-1.023838520E0,-6.546279430E0
3.580120633E0,2.486626357E-1,-1.047309399E0,-6.655330658E0
3.590120633E0,3.476965427E-1,-1.113975048E0,-6.661220551E0
3.600120633E0,2.294749618E-1,-1.144748688E0,-6.712459087E0
3.610120899E0,2.414202541E-1,-1.183554173E0,-6.803253174E0
3.620120899E0,1.741074324E-1,-9.243173599E-1,-6.667329311E0
3.630120899E0,1.167287380E-1,-7.801260948E-1,-6.554869652E0
3.640120899E0,5.658015609E-3,-7.194838524E-1,-6.435090065E0
3.650120899E0,-1.429708302E-1,-6.307439804E-1,-6.455388546E0
3.660120899E0,-1.062790900E-1,-5.726642609E-1,-6.494614601E0
3.670120932E0,-1.049326360E-1,-4.886989594E-1,-6.518305302E0
3.680120965E0,-9.116919339E-2,-3.777256012E-1,-6.506012917E0
3.690120965E0,1.179348826E-1,-1.785817146E-1,-6.669837952E0
3.700120965E0,1.241764203E-1,1.084532738E-1,-7.102992058E0
3.710120965E0,6.119900197E-2,2.134890556E-1,-7.238806725E0
3.720120965E0,-2.341593206E-1,4.614872932E-1,-7.351968288E0
3.730120965E0,-4.788367152E-1,6.585469246E-1,-7.214960575E0
3.740120965E0,-5.633516312E-1,6.658291817E-1,-6.777379513E0
3.750120965E0,-5.269841552E-1,7.001166344E-1,-6.780174732E0
3.760120965E0,-4.608237445E-1,7.145476341E-1,-6.668913364E0
3.770120965E0,-2.171505988E-1,7.703971863E-1,-6.579073429E0
3.780120965E0,1.286539882E-1,8.192005157E-1,-6.459763050E0
3.790120998E0,3.944777250E-1,8.368158340E-1,-6.344196320E0
3.800120998E0,5.399231911E-1,9.615788460E-1,-6.047419548E0
3.810120964E0,6.407524347E-1,1.209907532E0,-5.683942795E0
3.820120964E0,6.127732992E-1,1.552160740E0,-5.173882484E0
3.830120964E0,6.239074469E-1,1.876377583E0,-4.939478874E0
3.840120964E0,6.370011568E-1,2.158447742E0,-4.655538082E0
3.850121364E0,6.035118103E-1,2.371565342E0,-4.454608917E0
3.860121364E0,5.119487047E-1,2.807151794E0,-4.961396217E0
3.870121364E0,4.910975695E-1,2.863385201E0,-5.174703598E0
3.880121364E0,4.862924814E-1,3.064207554E0,-5.792939186E0
3.890121364E0,5.552722812E-1,3.366030693E0,-6.283214092E0
3.900121364E0,5.815556049E-1,3.931696415E0,-6.548681259E0
3.910121364E0,5.518890619E-1,4.044855595E0,-6.475871086E0
3.920121364E0,3.995338678E-1,4.378684521E0,-5.755666256E0
3.930121397E0,5.151825547E-1,4.793028831E0,-5.033476830E0
3.940121397E0,6.270643473E-1,5.521898746E0,-4.664363861E0
3.950121430E0,6.460200548E-1,5.619875908E0,-4.670792580E0
3.960121430E0,5.432813168E-1,5.836056232E0,-4.523333073E0
3.970121396E0,3.134475946E-1,5.869828701E0,-4.289806366E0
3.980121362E0,2.815546393E-1,5.801288128E0,-4.184083939E0
3.990121362E0,1.894283295E-1,5.618741035E0,-4.103416443E0
4.000121362E0,2.148917168E-1,5.363259315E0,-3.758271217E0
4.010121362E0,9.063050151E-2,5.181583881E0,-3.230404377E0
4.020121362E0,-1.177183986E-1,4.973008633E0,-2.989203930E0
4.030121362E0,-1.413244605E-1,4.928409100E0,-3.143611431E0
4.040121362E0,-2.499361932E-1,4.890151501E0,-3.617245197E0
4.050121362E0,-4.030268490E-1,5.013619423E0,-4.178290367E0
4.060121362E0,-7.623711824E-1,5.424167633E0,-5.181976318E0
4.070121362E0,-8.251461387E-1,5.488500118E0,-5.335673809E0
4.080121362E0,-8.178354502E-1,5.754736423E0,-5.566913605E0
4.090121328E0,-5.323795080E-1,5.803763866E0,-5.769866943E0
4.100121328E0,1.672345400E-2,5.986227036E0,-5.500075817E0
4.110121328E0,1.085674167E-1,6.024456501E0,-5.247636795E0
4.120121328E0,3.375135660E-1,5.948730946E0,-4.548986435E0
4.130121328E0,4.947768748E-1,5.886051655E0,-4.084623337E0
4.140121328E0,4.639487565E-1,6.039262295E0,-3.890484333E0
4.150121328E0,4.445018768E-1,6.053663254E0,-3.902238846E0
4.160121328E0,4.099816680E-1,6.201737404E0,-3.863366127E0
4.170121328E0,4.808551669E-1,6.439200401E0,-4.069846630E0
4.180121361E0,5.626348257E-1,6.695226192E0,-4.254985809E0
4.190121361E0,7.298242450E-1,6.939464569E0,-4.354695320E0
4.200121361E0,9.277903438E-1,7.251586437E0,-4.491539955E0
4.210121361E0,9.687751532E-1,7.500896454E0,-4.510651112E0
4.220121361E0,1.175243616E0,7.800911903E0,-4.494163513E0
4.230121327E0,1.289696097E0,7.892629623E0,-4.669243813E0
4.240121327E0,1.396311164E0,8.102102280E0,-4.768013000E0
4.250121293E0,1.438926458E0,8.371236801E0,-4.789196014E0
4.260121293E0,1.068105102E0,9.201239586E0,-4.900624275E0
4.270121293E0,9.938904643E-1,9.417384148E0,-4.917263985E0
4.280121293E0,7.621420622E-1,9.817010880E0,-4.867758751E0
4.290121293E0,4.665251970E-1,1.029156685E1,-4.691038609E0
4.300121293E0,3.412553668E-1,1.089209747E1,-4.289453506E0
4.310121326E0,4.272605777E-1,1.096045876E1,-4.177952766E0
4.320121326E0,6.216434836E-1,1.096532345E1,-3.515741348E0
4.330121326E0,6.919233799E-1,1.091781807E1,-2.795060635E0
4.340121326E0,9.040663838E-1,1.107852745E1,-2.058391094E0
4.350121326E0,8.977844715E-1,1.114437962E1,-2.093803406E0
4.360121326E0,5.734812021E-1,1.139834785E1,-2.328641415E0
4.370121326E0,-2.763057500E-2,1.170355797E1,-2.693201542E0
4.380121326E0,-3.482173979E-1,1.177090263E1,-2.964420319E0
4.390121326E0,-4.707670212E-1,1.163194466E1,-2.930338860E0
4.400121326E0,-6.374986172E-1,1.128792572E1,-2.729156017E0
4.410121326E0,-6.670869589E-1,1.076159859E1,-2.407224655E0
4.420121326E0,-5.057106614E-1,9.873977661E0,-2.013611794E0
4.430121359E0,-2.961354554E-1,9.158427238E0,-1.823992252E0
4.440121359E0,-1.793559343E-1,8.337800026E0,-1.936136246E0
4.450121359E0,4.166392982E-2,7.737180710E0,-2.285186291E0
4.460121359E0,-5.327983201E-2,6.946019173E0,-3.533782005E0
4.470121359E0,-6.846264005E-2,6.779508114E0,-3.852627277E0
4.480121325E0,-1.536355913E-1,6.438876152E0,-4.738067627E0
4.490121325E0,-2.477425784E-1,6.183120728E0,-5.497091293E0
4.500121325E0,-3.799344897E-1,5.932649612E0,-6.348333836E0
4.510121358E0,-3.862837851E-1,5.851426601E0,-6.401660442E0
4.520121358E0,-4.462661147E-1,5.783784866E0,-6.592946529E0
4.530121358E0,-3.667041957E-1,5.761983871E0,-6.293791294E0
4.540121358E0,-1.943893433E-1,5.712251663E0,-5.363609314E0
4.550121358E0,-9.176927805E-2,5.699313164E0,-5.220470905E0
4.560121358E0,1.502928585E-1,5.656859398E0,-4.920302391E0
4.570121358E0,2.506169081E-1,5.634791851E0,-4.602097988E0
4.580121358E0,3.723215461E-1,5.513958931E0,-4.257064342E0
4.590121358E0,4.234293401E-1,5.380670547E0,-4.211283684E0
4.600121358E0,4.677344859E-1,5.283395290E0,-4.286053658E0
4.610121324E0,5.131102800E-1,5.173850536E0,-4.428276062E0
4.620121324E0,6.440703869E-1,5.021830559E0,-4.801403999E0
4.630121324E0,7.151486278E-1,4.924335480E0,-4.996964455E0
4.640121324E0,7.411842942E-1,4.703716755E0,-5.155396461E0
4.650121324E0,6.274410486E-1,4.447711945E0,-5.196598053E0
4.660121324E0,5.825607181E-1,3.948188782E0,-5.101571083E0
4.670121357E0,5.675356984E-1,3.912872791E0,-5.070615768E0
4.680121390E0,5.911591053E-1,3.521515369E0,-4.877393723E0
4.690121390E0,5.946477056E-1,3.153759480E0,-4.789079189E0
4.700121390E0,4.727738798E-1,2.435700417E0,-4.984769821E0
4.710121390E0,4.332641363E-1,2.231195927E0,-5.009033203E0
4.720121390E0,3.565378785E-1,1.760138512E0,-5.293058395E0
4.730121356E0,3.005510569E-1,1.304618359E0,-5.573044777E0
4.740121356E0,3.317965567E-2,5.901131630E-1,-6.062556267E0
4.750121356E0,-8.192367852E-3,4.614949226E-1,-6.028409958E0
4.760121356E0,-1.154791638E-1,1.133918762E-3,-6.161721230E0
4.770121356E0,-2.615704834E-1,-4.907832146E-1,-6.386948109E0
4.780121356E0,-4.627372026E-1,-1.062706947E0,-6.710829258E0
4.790121356E0,-5.241922140E-1,-1.547767162E0,-6.914816856E0
4.800121356E0,-5.236545801E-1,-1.975697041E0,-7.127344608E0
4.810121322E0,-4.584147930E-1,-2.384308815E0,-7.272768497E0
4.820121322E0,-3.594691455E-1,-2.834671497E0,-7.304047585E0
4.830121322E0,-2.081871182E-1,-3.097131729E0,-7.226341248E0
4.840121322E0,-1.047828794E-2,-3.330288887E0,-7.058372498E0
4.850121322E0,1.457976103E-1,-3.547159910E0,-6.803949833E0
4.860121322E0,2.738867700E-1,-3.782444954E0,-6.452362061E0
4.870120922E0,2.249659598E-1,-3.867124557E0,-6.325956821E0
4.880120922E0,2.224846482E-1,-3.950381279E0,-5.923678398E0
4.890120922E0,3.541758657E-1,-4.073649406E0,-5.644523621E0
4.900120922E0,3.084831834E-1,-4.214555740E0,-5.472371578E0
4.910120922E0,2.590245605E-1,-4.222106934E0,-5.488385677E0
4.920120922E0,2.041298151E-2,-4.205437660E0,-5.612023830E0
4.930120955E0,-1.950724721E-1,-4.120969772E0,-5.783848763E0
4.940120955E0,-5.626344681E-1,-3.867397070E0,-6.131480217E0
4.950120988E0,-6.500767469E-1,-3.824800730E0,-6.128731251E0
4.960120988E0,-6.949775219E-1,-3.688406944E0,-6.214235783E0
4.970120954E0,-6.307972074E-1,-3.524414062E0,-6.283558369E0
4.980120920E0,-5.530170798E-1,-3.234817982E0,-6.427452087E0
4.990120920E0,-4.704445601E-1,-2.925744534E0,-6.764666080E0
5.000120920E0,-4.183877707E-1,-2.590040684E0,-7.213351250E0
5.010120920E0,-4.289594293E-1,-2.171275616E0,-7.672806740E0
5.020120920E0,-3.579920232E-1,-1.584999561E0,-8.175307274E0
5.030120920E0,-4.267612100E-1,-1.200184345E0,-8.343132019E0
5.040120920E0,-6.052807570E-1,-5.510354042E-1,-8.537402153E0
5.050120920E0,-6.903113127E-1,1.105785370E-3,-8.729784966E0
5.060120920E0,-9.531561732E-1,1.198997021E0,-8.772680283E0
5.070120920E0,-9.677024484E-1,1.439703941E0,-8.710843086E0
5.080120920E0,-9.930821657E-1,2.036623955E0,-8.349771500E0
5.090120920E0,-7.977730036E-1,2.471402645E0,-7.834428787E0
5.100120920E0,-4.400218129E-1,2.739009380E0,-6.671057701E0
5.110120920E0,-3.957892954E-1,2.768671036E0,-6.545564651E0
5.120120920E0,-1.759513319E-1,2.725565434E0,-5.946218491E0
5.130120920E0,-3.016117215E-2,2.673560619E0,-5.520076275E0
5.140120920E0,5.248436332E-2,2.386741161E0,-4.906314850E0
5.150120920E0,6.492677331E-2,2.344119072E0,-4.923456192E0
5.160120920E0,1.124029756E-1,2.071866989E0,-4.964630127E0
5.170121320E0,1.330998838E-1,1.782144070E0,-5.221487522E0
5.180121353E0,1.472635865E-1,1.357870102E0,-5.668054104E0
5.190121353E0,1.407201290E-1,1.016057491E0,-6.035749912E0
5.200121353E0,2.096048594E-1,6.171116829E-1,-6.420011997E0
5.210121353E0,2.393521070E-1,1.700243950E-1,-6.844557285E0
5.220121353E0,2.620679140E-1,-2.325406075E-1,-7.191703796E0
5.230121319E0,2.979405820E-1,-5.302181244E-1,-7.392641544E0
5.240121319E0,3.218081295E-1,-8.455204964E-1,-7.588172913E0
5.250121285E0,2.606663406E-1,-1.065024853E0,-7.762565613E0
5.260121285E0,5.683349073E-2,-1.348445892E0,-7.840003967E0
5.270121285E0,1.921951771E-2,-1.383712769E0,-7.818916321E0
5.280121285E0,-1.504106373E-1,-1.529045105E0,-7.680950642E0
5.290121285E0,-2.371951938E-1,-1.662294865E0,-7.576755047E0
5.300121285E0,-4.652630687E-1,-1.831685543E0,-7.134593487E0
5.310121318E0,-4.520240724E-1,-1.823942661E0,-7.120579243E0
5.320121318E0,-4.818460941E-1,-1.831172943E0,-6.892258167E0
5.330121318E0,-4.333237708E-1,-1.801443577E0,-6.733613014E0
5.340121318E0,-3.537231386E-1,-1.776313782E0,-6.198328018E0
5.350121318E0,-2.994546592E-1,-1.720448494E0,-6.178783417E0
5.360121318E0,-2.893481255E-1,-1.747126579E0,-6.051660538E0
5.370121318E0,-2.701047957E-1,-1.711682320E0,-5.820370674E0
5.380121318E0,-3.040624559E-1,-1.650426388E0,-5.518085480E0
5.390121318E0,-3.554359376E-1,-1.557108402E0,-5.325943470E0
5.400121318E0,-3.855968416E-1,-1.413774014E0,-5.190286636E0
5.410121318E0,-2.186569422E-1,-1.273516178E0,-5.259419441E0
5.420121318E0,2.210913152E-1,-1.132860184E0,-5.573040962E0
5.430121351E0,4.773268700E-1,-1.034796238E0,-5.939858913E0
5.440121351E0,7.010408044E-1,-8.999562263E-1,-6.539801121E0
5.450121351E0,7.096110582E-1,-6.911063194E-1,-6.916751862E0
5.460121351E0,5.788722038E-1,-3.316736221E-1,-6.895619869E0
5.470121351E0,5.021461844E-1,-2.346510887E-1,-6.860466957E0
5.480121317E0,1.510064006E-1,1.419539452E-1,-6.493613720E0
5.490121317E0,-1.084985137E-1,6.787152290E-1,-6.235815048E0
5.500121317E0,-3.133975267E-1,1.210970879E0,-6.032503128E0
5.510121350E0,-2.712089717E-1,1.322207928E0,-5.952890396E0
5.520121350E0,3.249460459E-2,1.614556313E0,-5.586382389E0
5.530121350E0,4.848295450E-1,1.861377716E0,-5.278677940E0
5.540121350E0,6.081213355E-1,2.135943890E0,-4.718190670E0
5.550121350E0,5.824182034E-1,2.284391880E0,-4.728502750E0
5.560121350E0,4.068339467E-1,2.843558311E0,-4.669002533E0
5.570121350E0,1.406680346E-1,3.431572437E0,-4.756265163E0
5.580121350E0,-1.393385231E-1,3.960767746E0,-4.573894501E0
5.590121350E0,-2.834735811E-1,4.352753162E0,-4.279816628E0
5.600121350E0,-3.480773270E-1,4.685026646E0,-4.004617214E0
5.610121316E0,-2.603795528E-1,4.873353004E0,-3.791912556E0
5.620121316E0,-4.288971424E-2,4.779852867E0,-3.705567837E0
5.630121316E0,4.228502512E-2,4.773119926E0,-3.577393055E0
5.640121316E0,1.646254808E-1,4.906499863E0,-3.480446815E0
5.650121316E0,3.086267710E-1,4.966477394E0,-3.654513359E0
5.660121316E0,4.797812104E-1,4.855467319E0,-4.280283928E0
5.670121349E0,4.747288823E-1,4.839892864E0,-4.386092186E0
5.680121382E0,6.065653563E-1,4.786084175E0,-4.687301636E0
5.690121382E0,8.100368381E-1,4.706786633E0,-4.932270050E0
5.700121382E0,8.437327147E-1,4.406235695E0,-5.082375050E0
5.710121382E0,8.047822118E-1,4.385432720E0,-5.102146149E0
5.720121382E0,7.688997984E-1,4.281464100E0,-5.256393433E0
5.730121348E0,7.704529166E-1,4.296875477E0,-5.369620323E0
5.740121348E0,8.959998488E-1,4.520650387E0,-5.537851810E0
5.750121348E0,8.730075359E-1,4.558053017E0,-5.529032707E0
5.760121348E0,8.901119828E-1,4.744530678E0,-5.439111710E0
5.770121348E0,7.529812455E-1,4.886805058E0,-5.000428677E0
5.780121348E0,4.830890894E-1,5.051902294E0,-4.442843437E0
5.790121348E0,2.827693224E-1,5.190421104E0,-4.217844009E0
5.800121348E0,8.409333229E-2,5.368926525E0,-4.169479370E0
5.810121314E0,3.355944902E-2,5.547669411E0,-3.900973320E0
5.820121314E0,8.442614973E-2,5.793031693E0,-3.629003048E0
5.830121314E0,1.753920764E-1,5.838419914E0,-3.628320694E0
5.840121314E0,2.170719206E-1,5.917304993E0,-3.740116119E0
5.850121314E0,1.559766829E-1,6.029547691E0,-3.811076641E0
5.860121314E0,1.715211570E-1,6.628054619E0,-3.599676132E0
5.870121314E0,1.468426287E-1,6.793210506E0,-3.601319313E0
5.880121314E0,2.464730144E-1,7.249289989E0,-3.798380852E0
5.890121314E0,4.515936971E-1,7.722807407E0,-3.957417965E0
5.900121314E0,7.276576757E-1,8.473716736E0,-3.997117043E0
5.910121314E0,7.849699259E-1,8.616056442E0,-3.875896931E0
5.920121314E0,1.004570246E0,8.789455414E0,-3.560456276E0
5.930121347E0,1.206082821E0,8.874761581E0,-3.173719883E0
5.940121347E0,1.437748313E0,9.305213928E0,-2.508680820E0
5.950121380E0,1.467024446E0,9.397440910E0,-2.460501671E0
5.960121380E0,1.639384270E0,9.674503326E0,-2.478919983E0
5.970121346E0,1.807794929E0,9.964206696E0,-2.887856960E0
5.980121312E0,1.883121490E0,1.010378838E1,-3.438675880E0
5.990121312E0,1.792565465E0,1.034244347E1,-3.735241890E0
6.000121312E0,1.663450718E0,1.082324219E1,-4.020158768E0
6.010121312E0,1.421808958E0,1.127342224E1,-3.905007362E0
6.020121312E0,1.000009894E0,1.180089188E1,-3.388695717E0
6.030121312E0,8.809647560E-1,1.209412003E1,-2.815278053E0
6.040121312E0,9.303895831E-1,1.233624077E1,-1.751402855E0
6.050121312E0,1.133035421E0,1.236456490E1,-9.757885933E-1
6.060121312E0,1.368387341E0,1.215933418E1,-6.406002045E-1
6.070121312E0,1.195420504E0,1.205570793E1,-6.094799042E-1
6.080121312E0,7.164360285E-1,1.170345879E1,-7.294540405E-1
6.090121312E0,3.008678555E-1,1.135861206E1,-9.912543297E-1
6.100121312E0,-3.130574226E-1,1.067268562E1,-1.364617348E0
6.110121312E0,-4.298634529E-1,1.043755341E1,-1.335789680E0
6.120121312E0,-6.342937946E-1,9.806385040E0,-1.539385319E0
6.130121312E0,-7.839369178E-1,9.304191589E0,-1.962439060E0
6.140121312E0,-1.026449680E0,8.622418404E0,-3.100110054E0
6.150121312E0,-1.038387299E0,8.504505157E0,-3.243728161E0
6.160121312E0,-1.157610059E0,8.246923447E0,-3.699941158E0
6.170121312E0,-1.208614469E0,7.992044449E0,-4.036726475E0
6.180121345E0,-1.101950526E0,7.682396412E0,-4.303796291E0
6.190121345E0,-9.077128172E-1,7.436428070E0,-4.329452038E0
6.200121345E0,-6.585176587E-1,7.249736786E0,-4.441853523E0
6.210121345E0,-4.663710892E-1,7.037488937E0,-4.494352341E0
6.220121345E0,-1.948640347E-1,6.804087162E0,-4.418866158E0
6.230121311E0,-1.020374298E-1,6.508882999E0,-4.280175686E0
6.240121311E0,7.958918810E-2,6.211066246E0,-4.187952995E0
6.250121277E0,3.212903738E-1,5.952704906E0,-4.067306995E0
6.260121277E0,7.838889360E-1,5.418992996E0,-3.977321148E0
6.270121277E0,8.254671693E-1,5.278407574E0,-3.967111111E0
6.280121277E0,9.156978130E-1,5.057667255E0,-4.030958652E0
6.290121277E0,9.235521555E-1,4.885151386E0,-4.050869465E0
6.300121277E0,4.343559146E-1,4.739161015E0,-4.376121044E0
6.310121310E0,3.268441558E-1,4.686639786E0,-4.367267132E0
6.320121310E0,5.344450474E-2,4.533231735E0,-4.492330551E0
6.330121310E0,-6.239771843E-2,4.349626064E0,-4.608311653E0
6.340121310E0,-2.416748405E-1,3.947407722E0,-5.026885033E0
6.350120910E0,-2.377768159E-1,3.829635620E0,-5.027571678E0
6.360120910E0,-2.850740254E-1,3.620624542E0,-5.151613235E0
6.370120910E0,-3.679376543E-1,3.370540142E0,-5.367891312E0
6.380120910E0,-4.169805348E-1,3.120163441E0,-5.599820137E0
6.390120910E0,-4.089760184E-1,2.964344501E0,-5.645043373E0
6.400120910E0,-4.583939910E-1,2.688198090E0,-5.829767227E0
6.410120910E0,-4.432296455E-1,2.333516121E0,-5.839253426E0
6.420120910E0,-5.484344959E-1,1.937204838E0,-5.726997852E0
6.430120943E0,-6.151866913E-1,1.633645058E0,-5.658353329E0
6.440120943E0,-5.985336304E-1,1.211798191E0,-5.630587101E0
6.450120943E0,-5.483524203E-1,7.019786835E-1,-5.620915890E0
6.460120943E0,-1.841384172E-1,-9.226179123E-2,-5.536042213E0
6.470120943E0,-7.885640860E-2,-2.451348305E-1,-5.473740101E0
6.480120909E0,2.013837695E-1,-4.743509293E-1,-5.533003807E0
6.490120909E0,3.626136780E-1,-6.772575378E-1,-5.773803711E0
6.500120909E0,3.691527247E-1,-1.022056103E0,-6.269968033E0
6.510120942E0,3.201990724E-1,-1.133521080E0,-6.336160183E0
6.520120942E0,8.009451628E-2,-1.315882206E0,-6.628360271E0
6.530120942E0,-2.009913325E-1,-1.627498627E0,-6.834438801E0
6.540120942E0,-3.909029365E-1,-2.291828632E0,-6.719226360E0
6.550120942E0,-4.056959152E-1,-2.410996437E0,-6.605333328E0
6.560120942E0,-4.394691288E-1,-2.770450115E0,-6.227342129E0
6.570120942E0,-3.260446787E-1,-3.025461197E0,-5.980358124E0
6.580120942E0,-3.360520601E-1,-3.256061077E0,-5.774566650E0
6.590120942E0,-4.130170345E-1,-3.421191454E0,-5.677375317E0
6.600120942E0,-3.865821958E-1,-3.657994032E0,-5.539612293E0
6.610120908E0,-3.912833333E-1,-3.865650654E0,-5.438051701E0
6.620120908E0,-5.168396831E-1,-3.977274179E0,-5.425317287E0
6.630120908E0,-6.069738269E-1,-4.078161240E0,-5.585876465E0
6.640120908E0,-6.733383536E-1,-4.149582863E0,-5.935704231E0
6.650121308E0,-8.906188011E-1,-4.210496902E0,-6.257087708E0
6.660121308E0,-1.075272083E0,-4.185147285E0,-6.558842659E0
6.670121341E0,-1.013467193E0,-4.161215782E0,-6.554811001E0
6.680121374E0,-8.172823191E-1,-3.978658199E0,-6.725901604E0
6.690121374E0,-6.669551134E-1,-3.603252888E0,-7.039155483E0
6.700121374E0,-5.445411205E-1,-2.721970081E0,-7.647149086E0
6.710121374E0,-5.090363026E-1,-2.620666027E0,-7.687665939E0
6.720121374E0,-7.125725150E-1,-1.947119713E0,-8.035130501E0
6.730121340E0,-9.073250294E-1,-1.302615166E0,-8.181998253E0
6.740121340E0,-1.250074148E0,1.445436478E-2,-8.569225311E0
6.750121340E0,-1.319432378E0,3.448228836E-1,-8.595833778E0
6.760121340E0,-1.517871141E0,1.215378284E0,-8.642197609E0
6.770121340E0,-1.646178246E0,1.979346752E0,-8.466869354E0
6.780121340E0,-1.671459436E0,2.602135181E0,-7.865611553E0
6.790121340E0,-1.574686766E0,3.101446629E0,-7.174492836E0
6.800121340E0,-1.395143509E0,3.569416046E0,-6.487270832E0
6.810121306E0,-1.174992085E0,3.727734089E0,-5.945934772E0
6.820121306E0,-8.379384279E-1,3.634034157E0,-5.432629585E0
6.830121306E0,-6.455968618E-1,3.535835266E0,-5.153847218E0
6.840121306E0,-2.865608335E-1,3.230500221E0,-4.866050243E0
6.850121306E0,-1.164909601E-1,2.895186901E0,-4.771181107E0
6.860121306E0,1.265108585E-2,1.989287376E0,-4.954722404E0
6.870121306E0,6.617927551E-2,1.800684452E0,-5.049934864E0
6.880121306E0,1.792412996E-1,1.344598293E0,-5.418643475E0
6.890121306E0,2.497192919E-1,9.034357071E-1,-5.954361439E0
6.900121306E0,3.381429613E-1,2.708497047E-1,-6.955269337E0
6.910121306E0,3.128106892E-1,2.214555740E-1,-7.105519295E0
6.920121306E0,2.230958939E-1,-4.984855652E-3,-7.634036064E0
6.930121339E0,1.604326963E-1,-2.505121231E-1,-8.014415741E0
6.940121339E0,-7.706570625E-2,-5.677037239E-1,-8.270983696E0
6.950121372E0,-6.518220901E-2,-5.572056770E-1,-8.283837318E0
6.960121372E0,-1.715203524E-1,-7.113304138E-1,-8.022868156E0
6.970121338E0,-2.349425852E-1,-8.335361481E-1,-7.749059677E0
6.980121304E0,-2.712777853E-1,-1.013319016E0,-7.465937614E0
6.990121304E0,-2.626522779E-1,-1.204287052E0,-7.387122631E0
7.000121304E0,-2.337608188E-1,-1.433176517E0,-7.275034428E0
7.010121304E0,-1.867722720E-1,-1.621451855E0,-7.112322330E0
7.020121304E0,-2.903035581E-1,-1.779117107E0,-6.982337475E0
7.030121304E0,-2.734142244E-1,-1.741517544E0,-7.023308277E0
7.040121304E0,-6.055334210E-1,-2.033046246E0,-6.679686069E0
7.050121304E0,-8.131378889E-1,-2.147642612E0,-6.464655399E0
7.060121304E0,-7.737259269E-1,-2.353157997E0,-6.108157158E0
7.070121304E0,-6.937677264E-1,-2.370734692E0,-6.098948002E0
7.080121304E0,-4.198468924E-1,-2.469492435E0,-6.168118000E0
7.090121304E0,-1.274981052E-1,-2.466172218E0,-6.283442497E0
7.100121304E0,1.855404675E-2,-2.464219093E0,-6.516242981E0
7.110121304E0,9.104058146E-3,-2.397487640E0,-6.573659420E0
7.120121304E0,-9.316664934E-2,-2.199745178E0,-6.591497898E0
7.130121304E0,-1.370201111E-1,-1.910192966E0,-6.588145256E0
7.140121304E0,-1.403361112E-1,-1.518045902E0,-6.708030701E0
7.150121304E0,-1.448322535E-1,-1.419681072E0,-6.763434410E0
7.160121304E0,-1.858219951E-1,-1.048316956E0,-6.872961521E0
7.170121304E0,-6.554871798E-2,-5.874381065E-1,-6.924505711E0
7.180121337E0,2.041047812E-2,-9.847211838E-2,-6.887781620E0
7.190121337E0,6.470219791E-2,2.046756744E-1,-6.874529839E0
7.200121337E0,2.061155587E-1,4.881782532E-1,-6.909789085E0
7.210121337E0,2.244572937E-1,9.015269279E-1,-6.798464775E0
7.220121337E0,8.436711133E-2,1.394799232E0,-6.289459705E0
7.230121303E0,-7.686652243E-2,1.744112968E0,-5.867334843E0
7.240121303E0,-1.988622397E-1,2.255503654E0,-5.090596199E0
7.250121269E0,-3.278372884E-1,2.661839485E0,-4.369226456E0
7.260121269E0,-3.002133667E-1,3.248794079E0,-3.151089668E0
7.270121269E0,-2.617388070E-1,3.383312225E0,-3.128677368E0
7.280121269E0,1.557634026E-1,3.600265980E0,-3.042729378E0
7.290121269E0,4.125793576E-1,3.763277531E0,-3.176158905E0
7.300121269E0,7.025097013E-1,4.068877697E0,-3.828664780E0
7.310121302E0,7.758538723E-1,4.238991737E0,-4.067792892E0
7.320121302E0,7.811141014E-1,4.641825199E0,-4.706774235E0
7.330121302E0,6.051752567E-1,4.986978531E0,-5.075736046E0
7.340121302E0,-9.598536789E-2,5.353914261E0,-4.631568909E0
7.350121302E0,-1.681410819E-1,5.386743069E0,-4.471411705E0
7.360121302E0,-2.265640497E-1,5.357764721E0,-3.767971516E0
7.370121302E0,-5.427718163E-3,5.173098087E0,-3.165337563E0
7.380121302E0,3.294121325E-1,5.019171715E0,-2.840201855E0
7.390121302E0,4.158778489E-1,4.910683155E0,-2.854889393E0
7.400121302E0,4.474129081E-1,4.803825855E0,-3.106969833E0
7.410121302E0,3.904061317E-1,4.825277328E0,-3.620643139E0
7.420121302E0,3.283807635E-1,4.988931179E0,-4.305616379E0
7.430121302E0,3.125653267E-1,4.976775646E0,-4.297363281E0
7.440121302E0,1.339588463E-1,5.400450706E0,-5.135266304E0
7.450121302E0,-1.968204975E-1,5.531197548E0,-5.325484753E0
7.460121302E0,-4.754286408E-1,5.686826706E0,-4.590647697E0
7.470121302E0,-5.309995413E-1,5.738662720E0,-4.278301716E0
7.480121268E0,-5.930813551E-1,5.836860180E0,-3.470924854E0
7.490121268E0,-6.871842742E-1,5.915022373E0,-3.087079525E0
7.500121268E0,-8.751831651E-1,6.111513138E0,-3.092713356E0
7.510121301E0,-8.944038153E-1,6.214849472E0,-2.975523472E0
7.520121301E0,-1.082837343E0,6.205442905E0,-3.249998569E0
7.530121301E0,-1.140835643E0,6.364768028E0,-3.614042759E0
7.540121301E0,-6.604147553E-1,6.733404160E0,-4.026940823E0
7.550121301E0,-5.535115600E-1,6.762750626E0,-4.078464508E0
7.560121301E0,-7.853759825E-2,6.887748718E0,-4.298751831E0
7.570121301E0,3.829689026E-1,7.009249687E0,-4.023225784E0
7.580121301E0,8.802754879E-1,7.425183296E0,-3.887276649E0
7.590121301E0,1.114230633E0,7.743115425E0,-3.736443996E0
7.600121301E0,1.123525381E0,8.071311951E0,-3.680593491E0
7.610121267E0,8.836407661E-1,8.580236435E0,-3.519798756E0
7.620121267E0,4.567740262E-1,9.331549644E0,-3.416516304E0
7.630121267E0,2.328834236E-1,9.824142456E0,-3.515137672E0
7.640121267E0,9.182107449E-2,1.042220306E1,-3.411453247E0
7.650121267E0,1.224017739E-1,1.101185799E1,-3.300997257E0
7.660121267E0,2.563573718E-1,1.162360668E1,-2.886278629E0
7.670121300E0,3.310629129E-1,1.169053078E1,-2.837716103E0
7.680121333E0,5.107607841E-1,1.185580158E1,-2.508264065E0
7.690121333E0,6.498845816E-1,1.189685249E1,-2.079966068E0
7.700121333E0,7.134963870E-1,1.160252094E1,-1.451989174E0
7.710121333E0,7.716943026E-1,1.150083733E1,-1.407442570E0
7.720121333E0,7.995101213E-1,1.125588036E1,-1.249977112E0
7.730121333E0,8.563537598E-1,1.099845314E1,-1.359060764E0
7.740121333E0,8.655983210E-1,1.098469543E1,-1.350693226E0
7.750121333E0,8.285126090E-1,1.051392269E1,-2.046602726E0
7.760121333E0,7.486296892E-1,1.018884182E1,-2.356143475E0
7.770121333E0,6.385155916E-1,9.875566483E0,-2.582510948E0
7.780121333E0,4.827392697E-1,9.472641945E0,-2.815200329E0
7.790121333E0,3.959823251E-1,9.184749603E0,-2.966568470E0
7.800121333E0,1.696509123E-1,8.766633034E0,-3.137670517E0
7.810121299E0,-4.429072142E-3,8.515558243E0,-3.175758839E0
7.820121299E0,-1.485265791E-1,8.252325058E0,-3.176857948E0
7.830121299E0,-1.660256237E-1,8.081075668E0,-3.236208439E0
7.840121299E0,-1.020374298E-1,7.878997326E0,-3.455637932E0
7.850121299E0,-1.429112256E-2,7.720342636E0,-3.646330833E0
7.860121299E0,5.198378861E-2,7.476557255E0,-3.921326637E0
7.870121299E0,8.564591408E-2,7.387022495E0,-3.983749390E0
7.880121299E0,8.623406291E-2,7.193462372E0,-3.905686855E0
7.890121299E0,1.428809464E-1,7.059450150E0,-3.615871429E0
7.900121299E0,2.415807247E-1,6.837368965E0,-3.328706741E0
7.910121299E0,2.197967172E-1,6.735364437E0,-3.293787479E0
7.920121299E0,2.483278513E-1,6.488660812E0,-3.313704491E0
7.930121332E0,3.604008555E-1,6.214553833E0,-3.306962967E0
7.940121332E0,3.383350074E-1,6.185461521E0,-3.285097122E0
7.950121365E0,5.068194866E-1,5.670028687E0,-3.771597862E0
7.960121365E0,4.779853225E-1,5.276500225E0,-4.179859161E0
7.970121331E0,4.508900940E-1,4.966462135E0,-4.525835037E0
7.980121297E0,4.703228474E-1,4.672862530E0,-4.691632271E0
7.990121297E0,5.446820259E-1,4.485481739E0,-4.515416145E0
8.000121297E0,4.987142086E-1,4.261260033E0,-4.193984985E0
8.010121297E0,4.884311557E-1,4.005636215E0,-4.044473648E0
8.020121297E0,5.281480551E-1,3.663691521E0,-4.050588608E0
8.030121297E0,5.743415356E-1,3.392365456E0,-4.036593437E0
8.040121297E0,4.696276188E-1,3.085593700E0,-4.061679363E0
8.050121297E0,4.485985637E-1,2.776588440E0,-4.245155811E0
8.060121297E0,3.343310356E-1,2.336390972E0,-4.941468239E0
8.070121297E0,2.826024890E-1,2.154086113E0,-5.054944038E0
8.080121297E0,1.721545458E-1,1.841504574E0,-5.413617611E0
8.090121297E0,8.209764957E-3,1.539446831E0,-5.619230270E0
8.100121297E0,-8.509427309E-2,1.038832188E0,-5.838311195E0
8.110121297E0,-1.580340266E-1,9.059991837E-1,-5.808470726E0
8.120121297E0,-2.948535979E-1,5.438079834E-1,-5.871128559E0
8.130121297E0,-3.986709714E-1,2.556920052E-1,-5.961133957E0
8.140121297E0,-3.815492690E-1,-2.225379944E-1,-6.171185970E0
8.150121297E0,-4.198501110E-1,-3.796410561E-1,-6.172162056E0
8.160121297E0,-4.018308818E-1,-6.893362999E-1,-6.179849625E0
8.170121297E0,-2.389813066E-1,-9.647898674E-1,-6.146769047E0
8.180121330E0,-8.449321985E-2,-1.133108139E0,-6.148577690E0
8.190121330E0,4.944574833E-2,-1.243731976E0,-6.200488091E0
8.200121330E0,8.676218987E-2,-1.400613785E0,-6.234509468E0
8.210121330E0,4.355102777E-2,-1.560642242E0,-6.267611027E0
8.220121330E0,-1.361861229E-1,-1.658598900E0,-6.125796795E0
8.230121296E0,-2.892376781E-1,-1.815237999E0,-6.071549416E0
8.240121296E0,-6.349794269E-1,-2.052770615E0,-5.991475105E0
8.250121262E0,-7.828842402E-1,-2.135011673E0,-5.987370014E0
8.260121262E0,-7.316814065E-1,-2.274065971E0,-6.086215019E0
8.270121262E0,-6.524573565E-1,-2.303480148E0,-6.089870930E0
8.280121262E0,-5.674490333E-1,-2.233884335E0,-6.121710777E0
8.290121262E0,-4.552545846E-1,-2.234070778E0,-6.145580292E0
8.300121262E0,-4.483662844E-1,-2.525459290E0,-6.165518284E0
8.310121295E0,-4.337815642E-1,-2.636957169E0,-6.150194645E0
8.320121295E0,-4.549461007E-1,-2.830423355E0,-6.095354080E0
8.330121295E0,-4.569298029E-1,-2.984268665E0,-5.892889023E0
8.340121295E0,-6.574257016E-1,-3.048284054E0,-6.116933823E0
8.350121228E0,-6.479060054E-1,-3.075931072E0,-6.134173870E0
8.360121228E0,-6.140151024E-1,-2.949077129E0,-6.402645588E0
8.370121228E0,-6.992894411E-1,-2.722824097E0,-6.683101654E0
8.380121228E0,-7.944567204E-1,-2.415543556E0,-7.080274582E0
8.390121228E0,-8.008908629E-1,-2.169006348E0,-7.426225662E0
8.400121228E0,-7.408252358E-1,-1.832908630E0,-7.591967106E0
8.410121228E0,-7.591730952E-1,-1.628411293E0,-7.692600250E0
8.420121228E0,-7.518234849E-1,-1.351899147E0,-7.731140137E0
8.430121261E0,-8.338399529E-1,-1.046761036E0,-7.767266273E0
8.440121261E0,-9.358391762E-1,-7.232465744E-1,-7.757150650E0
8.450121261E0,-8.194046021E-1,-3.667812347E-1,-7.581372738E0
8.460121261E0,-5.215654969E-1,2.071685791E-1,-7.187472343E0
8.470121261E0,-4.881545901E-1,3.010835648E-1,-7.077028751E0
8.480121227E0,-4.115715623E-1,5.453014374E-1,-6.962746620E0
8.490121227E0,-4.317380786E-1,8.601775169E-1,-6.927571297E0
8.500121227E0,-5.562497377E-1,1.181211472E0,-6.947892189E0
8.510121260E0,-5.686799884E-1,1.240898132E0,-6.976667404E0
8.520121260E0,-6.431858540E-1,1.339172363E0,-6.791813374E0
8.530121260E0,-5.940193534E-1,1.330164909E0,-6.558468819E0
8.540121260E0,-3.068309128E-1,1.138862133E0,-6.150777340E0
8.550121260E0,-2.589345872E-1,1.087205887E0,-6.093511581E0
8.560121260E0,-1.122656167E-1,8.455023766E-1,-5.891155720E0
8.570121260E0,5.457895994E-2,6.081175804E-1,-5.787823200E0
8.580121260E0,2.437952757E-1,2.558703423E-1,-5.982293129E0
8.590121260E0,3.454049230E-1,-9.067201614E-2,-6.353127480E0
8.600121260E0,3.532002568E-1,-4.050245285E-1,-6.690090656E0
8.610121226E0,3.152107596E-1,-7.285184860E-1,-6.962169647E0
8.620121226E0,1.538920403E-1,-1.162128925E0,-7.198280811E0
8.630121226E0,6.154245138E-2,-1.409648418E0,-7.165908813E0
8.640121226E0,-2.129751444E-2,-1.697306633E0,-6.868820667E0
8.650121292E0,-1.868434548E-1,-1.874352455E0,-6.589210033E0
8.660121292E0,-3.889582753E-1,-2.279699326E0,-6.016422272E0
8.670121325E0,-3.547527492E-1,-2.313510895E0,-5.929464817E0
8.680121358E0,-3.261918426E-1,-2.492223740E0,-5.807079315E0
8.690121358E0,-2.295690775E-1,-2.697306156E0,-5.879579544E0
8.700121358E0,-1.673087180E-1,-3.021092415E0,-6.330312252E0
8.710121358E0,-1.995505095E-1,-3.044610977E0,-6.417377949E0
8.720121358E0,-3.420224786E-1,-3.108746052E0,-6.621524811E0
8.730121324E0,-4.883959591E-1,-3.058403492E0,-6.667314053E0
8.740121324E0,-6.022598147E-1,-2.861054420E0,-6.623251438E0
8.750121324E0,-5.646404028E-1,-2.789342880E0,-6.645046234E0
8.760121324E0,-4.394243956E-1,-2.520285606E0,-6.722574711E0
8.770121324E0,-2.188464701E-1,-2.258108616E0,-6.989084721E0
8.780121324E0,-2.736620605E-1,-1.921384811E0,-7.386855602E0
8.790121324E0,-4.468649328E-1,-1.593556881E0,-7.629644394E0
8.800121324E0,-6.202626228E-1,-1.159879684E0,-7.719389439E0
8.810121290E0,-6.974179149E-1,-6.036925316E-1,-7.574524403E0
8.820121290E0,-8.549405336E-1,-7.176542282E-2,-7.213293552E0
8.830121323E0,-8.960254192E-1,3.965654373E-1,-6.878567219E0
8.840121323E0,-7.835804224E-1,9.626431465E-1,-6.487038136E0
8.850121323E0,-7.844123244E-1,1.411927223E0,-6.001061440E0
8.860121323E0,-6.028940082E-1,1.976127625E0,-5.029636383E0
8.870121323E0,-5.640275478E-1,2.130336285E0,-4.852869034E0
8.880121323E0,-3.297055662E-1,2.404582024E0,-4.128560066E0
8.890121323E0,-7.195566595E-2,2.502340317E0,-3.566020966E0
8.900121323E0,3.070774078E-1,2.727156639E0,-2.992973328E0
8.910121323E0,3.526023626E-1,2.766137600E0,-3.091097832E0
8.920121323E0,4.512051642E-1,2.951244831E0,-3.048922062E0
8.930121356E0,4.149478376E-1,3.023383617E0,-3.321292400E0
8.940121356E0,2.396440357E-1,3.177986622E0,-4.040064812E0
8.950121389E0,2.020100504E-1,3.222227573E0,-4.172033310E0
8.960121389E0,6.551541388E-2,3.325369358E0,-4.592538834E0
8.970121355E0,7.176364958E-2,3.441650391E0,-5.178780556E0
8.980121321E0,-1.230156422E-2,3.574160576E0,-5.952345371E0
8.990121321E0,-9.865618497E-2,3.823778629E0,-6.385716915E0
9.000121321E0,-8.123919368E-2,4.002839088E0,-6.635354042E0
9.010121321E0,5.485446751E-2,4.198998928E0,-6.425662041E0
9.020121321E0,2.444660515E-1,4.399195194E0,-5.522761345E0
9.030121321E0,3.066615164E-1,4.526300907E0,-4.917460442E0
9.040121321E0,3.739332855E-1,4.698198795E0,-4.232891083E0
9.050121321E0,3.358412981E-1,4.928494930E0,-3.726894855E0
9.060121321E0,3.428638875E-1,5.271696091E0,-3.389599800E0
9.070121321E0,3.501546085E-1,5.363400936E0,-3.381844997E0
9.080121321E0,4.011076987E-1,5.617659569E0,-3.253576279E0
9.090121354E0,4.455226064E-1,5.970876217E0,-3.026926041E0
9.100121354E0,4.494127333E-1,6.354788303E0,-3.134362698E0
9.110121354E0,4.616230726E-1,6.455341816E0,-3.156680107E0
9.120121354E0,4.690979421E-1,6.507135391E0,-3.147348881E0
9.130121320E0,4.444327354E-1,6.486847401E0,-3.131656647E0
9.140121320E0,4.680001140E-1,6.485526562E0,-3.044711113E0
9.150121320E0,4.747451842E-1,6.454602242E0,-3.032079697E0
9.160121320E0,4.908156395E-1,6.452924252E0,-3.030822754E0
9.170121320E0,3.299820721E-1,6.422249794E0,-3.006898880E0
9.180121353E0,1.542543173E-1,6.431163311E0,-3.297596455E0
9.190121353E0,-5.054064095E-3,6.494705677E0,-3.632218838E0
9.200121353E0,7.955802977E-2,6.624892712E0,-4.065399647E0
9.210121353E0,1.292439252E-1,6.909017086E0,-4.424823761E0
9.220121353E0,7.904343307E-2,7.364812374E0,-4.854148865E0
9.230121319E0,7.409428805E-2,7.761106014E0,-4.922514915E0
9.240121319E0,1.195034534E-1,8.293235779E0,-4.608673573E0
9.250121285E0,3.264130950E-1,8.689164162E0,-4.064070702E0
9.260121285E0,1.250792027E0,9.416863441E0,-2.530636311E0
9.270121285E0,1.242318988E0,9.449893951E0,-2.553822041E0
9.280121285E0,1.689388275E0,9.800906181E0,-2.269318581E0
9.290121285E0,1.846574664E0,1.037516594E1,-1.737499714E0
9.300121285E0,1.681102037E0,1.123434353E1,-2.155892372E0
9.310121318E0,1.602353811E0,1.134978580E1,-2.223484993E0
9.320121318E0,1.253638387E0,1.156445312E1,-2.351529121E0
9.330121318E0,1.072610259E0,1.177663231E1,-2.509000778E0
9.340121318E0,1.088042021E0,1.186950684E1,-2.538225651E0
9.350121318E0,1.081290364E0,1.182914162E1,-2.520903111E0
9.360121318E0,1.047729492E0,1.155511379E1,-2.440362453E0
9.370121318E0,1.051447749E0,1.132189178E1,-2.161953926E0
9.380121318E0,9.813340306E-1,1.110484314E1,-1.697189331E0
9.390121284E0,8.182294965E-1,1.085500908E1,-1.417225838E0
9.400121284E0,6.030558944E-1,1.049153709E1,-1.360699177E0
9.410121284E0,3.774993718E-1,1.018148041E1,-1.512812138E0
9.420121284E0,2.272689939E-1,9.675632477E0,-2.076841354E0
9.430121284E0,1.434308589E-1,9.319509506E0,-2.545628071E0
9.440121284E0,-1.765899062E-1,8.887047768E0,-3.152782917E0
9.450121284E0,-6.331303120E-1,8.545169830E0,-3.428454876E0
9.460121284E0,-7.568284273E-1,8.136295319E0,-3.547552109E0
9.470121284E0,-7.247978449E-1,7.996833801E0,-3.491851807E0
9.480121250E0,-5.971893668E-1,7.572906017E0,-3.394901752E0
9.490121250E0,-4.222016335E-1,7.163286686E0,-3.422206402E0
9.500121250E0,-1.931112856E-1,6.427607059E0,-3.882939816E0
9.510121283E0,-1.268438846E-1,6.269725323E0,-4.041148663E0
9.520121283E0,-1.832332462E-3,5.955636978E0,-4.290152550E0
9.530121283E0,1.738254130E-1,5.701461315E0,-4.431101322E0
9.540121283E0,3.559697270E-1,5.300111771E0,-4.486485481E0
9.550121283E0,3.687002063E-1,5.199828148E0,-4.463924408E0
9.560121283E0,4.473714232E-1,4.976129532E0,-4.477802277E0
9.570121283E0,5.703842044E-1,4.870670795E0,-4.465712547E0
9.580121283E0,7.623878717E-1,4.745996475E0,-4.623199940E0
9.590121283E0,7.273399830E-1,4.628818512E0,-4.718317986E0
9.600121283E0,7.357084751E-1,4.412186146E0,-4.794860840E0
9.610121249E0,6.655529737E-1,4.259202480E0,-4.786061287E0
9.620121249E0,6.465023756E-1,4.227031231E0,-4.758747101E0
9.630121249E0,7.000725269E-1,3.819305420E0,-4.626114845E0
9.640121249E0,6.763168573E-1,3.523298264E0,-4.588335514E0
9.650121249E0,5.351439714E-1,3.222669601E0,-4.663361549E0
9.660121249E0,1.833905280E-1,3.003328800E0,-4.937100410E0
9.670121282E0,6.805574894E-2,2.923209190E0,-4.950203896E0
9.680121315E0,-1.520687640E-1,2.755935669E0,-5.029122353E0
9.690121315E0,-3.008258045E-1,2.592979431E0,-5.044352531E0
9.700121315E0,-1.059469134E-1,2.307027340E0,-4.831054688E0
9.710121315E0,-6.850743294E-2,2.025032520E0,-4.643610001E0
9.720121315E0,8.214008808E-2,1.612820148E0,-4.474222183E0
9.730121315E0,1.522317231E-1,1.042003155E0,-4.259305954E0
9.740121315E0,2.611028552E-1,2.470641136E-1,-4.044752121E0
9.750120915E0,2.414788306E-1,1.478576660E-1,-4.030508041E0
9.760120915E0,2.084136307E-1,-9.424114227E-2,-4.215254784E0
9.770120915E0,8.855256438E-2,-3.735232353E-1,-4.338639736E0
9.780120915E0,-3.907808661E-2,-6.343774796E-1,-4.423042297E0
9.790120915E0,-1.190333664E-1,-8.883957863E-1,-4.380572319E0
9.800120915E0,-1.441382766E-1,-1.137032986E0,-4.228361130E0
9.810120881E0,-9.186202288E-2,-1.328106880E0,-4.228928566E0
9.820120881E0,-3.933995962E-2,-1.479154110E0,-4.460073948E0
9.830120881E0,-8.453604579E-2,-1.645657539E0,-4.753535748E0
9.840120881E0,-1.708573401E-1,-1.747913361E0,-4.959602833E0
9.850120881E0,-2.265349925E-1,-1.779381275E0,-5.109723568E0
9.860120881E0,2.075242996E-2,-1.858353138E0,-4.971538544E0
9.870120881E0,1.935702562E-2,-1.928555012E0,-4.817590237E0
9.880120881E0,-2.945417166E-2,-2.142203331E0,-4.479773521E0
9.890120881E0,-1.060495079E-1,-2.275215149E0,-4.093240738E0
9.900120881E0,-4.601222277E-2,-2.489987850E0,-3.415360689E0
9.910120881E0,-5.894482136E-3,-2.565679550E0,-3.326524496E0
9.920120881E0,3.789412975E-2,-2.736100674E0,-3.232718468E0
9.930120914E0,6.041735411E-2,-2.995438099E0,-3.383080006E0
9.940120914E0,-3.948360682E-2,-3.248374462E0,-3.715423822E0
9.950120947E0,-6.898832321E-2,-3.329782963E0,-3.836085320E0
9.960120947E0,-2.177159786E-1,-3.399702549E0,-4.372778893E0
9.970120913E0,-2.855101228E-1,-3.552649975E0,-4.925091743E0
9.980120879E0,-3.860865235E-1,-3.688712120E0,-5.398307323E0
9.990120879E0,-4.478440285E-1,-3.748135567E0,-5.527367115E0
1.000012088E1,-4.357954264E-1,-3.747673988E0,-5.554688931E0
1.001012088E1,-2.904231846E-1,-3.763875961E0,-5.561377048E0
1.002012088E1,-1.909378767E-1,-3.725973129E0,-5.544337273E0
1.003012088E1,-1.541613638E-1,-3.489789963E0,-5.549875736E0
1.004012091E1,-2.060682178E-1,-3.373859406E0,-5.659637451E0
1.005012131E1,-3.072916865E-1,-3.288737297E0,-6.124295235E0
1.006012131E1,-5.294829011E-1,-2.867174625E0,-6.562652588E0
1.007012131E1,-5.587531328E-1,-2.803708076E0,-6.617661476E0
1.008012131E1,-6.911261082E-1,-2.515833378E0,-6.690557957E0
1.009012131E1,-8.174881935E-1,-2.178177834E0,-6.788614273E0
1.010012131E1,-7.319019437E-1,-1.725820065E0,-6.615395546E0
1.011012131E1,-6.674962044E-1,-1.596322060E0,-6.536024094E0
1.012012131E1,-6.475419998E-1,-1.313425064E0,-6.207806587E0
1.013012131E1,-5.594510436E-1,-1.173959255E0,-5.750441074E0
1.014012131E1,-3.312739730E-1,-1.097126961E0,-5.097866058E0
1.015012131E1,-3.070820868E-1,-1.074747562E0,-5.094737053E0
1.016012131E1,-1.650073230E-1,-1.117375374E0,-4.939365387E0
1.017012131E1,-1.550052613E-1,-1.268147945E0,-4.760932922E0
1.018012134E1,-9.417015314E-2,-1.572735786E0,-4.628488541E0
1.019012135E1,-9.028175473E-2,-1.825540066E0,-4.625112057E0
1.020012135E1,-3.856748343E-2,-2.057798862E0,-4.669047356E0
1.021012135E1,4.594737291E-2,-2.309995651E0,-4.573832989E0
1.022012134E1,2.926912904E-1,-2.560400963E0,-4.512065887E0
1.023012131E1,4.097929299E-1,-2.725920677E0,-4.582963943E0
1.024012131E1,3.702588379E-1,-2.905578136E0,-4.775520802E0
1.025012128E1,3.546745777E-1,-3.008788109E0,-5.043646336E0
1.026012128E1,2.169178426E-1,-2.961427689E0,-5.250765800E0
1.027012128E1,1.640177071E-1,-2.945084095E0,-5.320810318E0
1.028012128E1,1.044008732E-1,-3.006732464E0,-5.226510048E0
1.029012128E1,1.119787693E-1,-2.970378399E0,-5.285799503E0
1.030012128E1,-1.648468524E-1,-3.334256172E0,-4.408802509E0
1.031012131E1,-1.456283629E-1,-3.311805248E0,-4.415549755E0
1.032012131E1,1.617035270E-2,-3.316663265E0,-4.379508018E0
1.033012131E1,1.241818070E-2,-3.285041332E0,-4.722369194E0
1.034012128E1,-5.480651557E-2,-3.128983498E0,-5.599090576E0
1.035012128E1,-7.620647550E-2,-3.068981171E0,-5.734352589E0
1.036012128E1,-1.971088052E-1,-2.865318298E0,-5.871593952E0
1.037012128E1,-3.308636546E-1,-2.573961735E0,-5.936345100E0
1.038012128E1,-4.349453747E-1,-2.230233192E0,-6.044141293E0
1.039012128E1,-5.866910219E-1,-1.941498756E0,-6.066006660E0
1.040012128E1,-7.755298018E-1,-1.642061710E0,-6.017602921E0
1.041012128E1,-6.989407539E-1,-1.293244839E0,-5.669358253E0
1.042012128E1,-4.227843881E-1,-9.376015663E-1,-5.016973972E0
1.043012131E1,-2.300326079E-1,-6.905255318E-1,-4.667750835E0
1.044012131E1,-4.367971420E-2,-3.357377052E-1,-4.365729332E0
1.045012131E1,2.166004479E-2,8.425760269E-2,-4.249845982E0
1.046012131E1,1.074063331E-1,8.436326981E-1,-3.859084845E0
1.047012131E1,1.380105913E-1,1.068454266E0,-3.758533001E0
1.048012128E1,2.858135104E-1,1.532556057E0,-3.338326931E0
1.049012128E1,2.421209365E-1,1.867526531E0,-2.878965855E0
1.050012128E1,-2.796784043E-3,2.222000599E0,-2.215161324E0
1.051012101E1,-2.254325897E-2,2.329295158E0,-2.157495022E0
1.052012101E1,-1.213178188E-1,2.446328640E0,-1.847107887E0
1.053012101E1,-1.133053303E-1,2.475519657E0,-1.854179382E0
1.054012101E1,-1.133222803E-1,2.459097862E0,-2.436675072E0
1.055012101E1,-1.113879532E-1,2.450685978E0,-2.547283649E0
1.056012101E1,-6.678089499E-2,2.393093586E0,-2.952831507E0
1.057012101E1,1.577164233E-1,2.375610828E0,-3.359878778E0
1.058012101E1,4.758702517E-1,2.602760315E0,-3.870105505E0
1.059012101E1,6.291764379E-1,2.789225101E0,-4.042753220E0
1.060012101E1,6.359250546E-1,2.932759285E0,-4.079289436E0
1.061012097E1,5.906672478E-1,3.225637436E0,-3.879926682E0
1.062012097E1,3.777234852E-1,3.412252903E0,-3.433218718E0
1.063012097E1,2.437321842E-1,3.519165993E0,-3.151115179E0
1.064012097E1,4.060425237E-2,3.612452984E0,-2.891264439E0
1.065012097E1,2.998947911E-2,3.546872616E0,-2.699855328E0
1.066012097E1,3.114943504E-1,3.501263142E0,-2.674245834E0
1.067012101E1,3.988932371E-1,3.534036160E0,-2.736389637E0
1.068012104E1,7.637405992E-1,3.608508110E0,-2.852021694E0
1.069012104E1,9.650918245E-1,3.729652405E0,-3.042909622E0
1.070012104E1,9.722439051E-1,3.988695145E0,-3.486505508E0
1.071012104E1,9.231656790E-1,4.079905033E0,-3.494019985E0
1.072012104E1,7.514560819E-1,4.329642773E0,-3.346376419E0
1.073012101E1,5.964743495E-1,4.423025608E0,-3.181223154E0
1.074012101E1,2.653044164E-1,4.672977448E0,-3.119941950E0
1.075012101E1,2.624909580E-1,4.653512478E0,-3.136393309E0
1.076012101E1,1.739902496E-1,4.694612980E0,-3.139166594E0
1.077012101E1,1.004402936E-1,4.769866467E0,-3.183245420E0
1.078012101E1,2.473972738E-1,4.937251091E0,-3.190131426E0
1.079012101E1,1.813067198E-1,5.236046791E0,-2.906990051E0
1.080012101E1,2.545417845E-2,5.567083836E0,-2.572159767E0
1.081012127E1,6.939283013E-2,5.970074177E0,-2.388127327E0
1.082012127E1,2.305374742E-1,6.365358829E0,-2.049873829E0
1.083012127E1,3.394722044E-1,6.579481125E0,-1.640706062E0
1.084012127E1,5.478115678E-1,6.734869957E0,-1.043258190E0
1.085012127E1,8.823720813E-1,6.760793686E0,-4.669122696E-1
1.086012127E1,1.150943041E0,6.666582108E0,-4.143033028E-1
1.087012127E1,1.161833048E0,6.698091507E0,-5.401930809E-1
1.088012127E1,1.363632917E0,6.756334782E0,-1.107435226E0
1.089012127E1,1.442471862E0,7.078946590E0,-1.556380272E0
1.090012127E1,1.272771835E0,7.768406868E0,-1.953611851E0
1.091012127E1,1.265825272E0,7.762377739E0,-1.947810650E0
1.092012127E1,7.271648645E-1,8.510110855E0,-2.415939331E0
1.093012130E1,2.811678946E-1,8.928073883E0,-2.686024189E0
1.094012130E1,3.843707740E-1,9.497878075E0,-2.652812004E0
1.095012134E1,4.779561162E-1,9.512115479E0,-2.542320728E0
1.096012134E1,9.854249954E-1,9.592049599E0,-1.897930622E0
1.097012130E1,1.321518898E0,9.574428558E0,-1.316103935E0
1.098012127E1,1.437903643E0,9.502157211E0,-9.308233261E-1
1.099012127E1,1.459465384E0,9.423427582E0,-6.949238777E-1
1.100012127E1,1.352854490E0,9.209193230E0,-4.940366745E-1
1.101012127E1,1.010767460E0,8.914506912E0,-3.475508690E-1
1.102012127E1,6.759334803E-1,8.587542534E0,-5.694937706E-1
1.103012127E1,5.180310607E-1,8.241886139E0,-8.070135117E-1
1.104012127E1,4.113280475E-1,7.828167915E0,-1.096991062E0
1.105012127E1,2.774700820E-1,7.399016857E0,-1.474588871E0
1.106012127E1,2.409387529E-1,6.678370476E0,-2.094510078E0
1.107012127E1,3.090427518E-1,6.474017143E0,-2.261046410E0
1.108012127E1,3.844481111E-1,6.020830631E0,-2.812423229E0
1.109012127E1,4.540016651E-1,5.607653141E0,-3.300308943E0
1.110012127E1,3.531136513E-1,4.932891369E0,-3.753532648E0
1.111012127E1,3.340155482E-1,4.824123383E0,-3.769158602E0
1.112012127E1,2.793554366E-1,4.537997246E0,-3.757967710E0
1.113012127E1,3.017234802E-1,4.336440563E0,-3.582221270E0
1.114012127E1,4.053102732E-1,4.089612007E0,-3.167231798E0
1.115012130E1,3.887928426E-1,4.071647644E0,-3.081666231E0
1.116012130E1,3.220712841E-1,4.068227291E0,-2.821519852E0
1.117012130E1,3.358244896E-1,4.053317070E0,-2.805968285E0
1.118012134E1,2.657084465E-1,4.085083961E0,-2.726760387E0
1.119012134E1,3.135975897E-1,4.041309357E0,-2.734591007E0
1.120012134E1,2.717826664E-1,3.962944984E0,-2.669306278E0
1.121012134E1,2.757920623E-1,3.824234009E0,-2.577029705E0
1.122012134E1,4.247752726E-1,3.631944656E0,-2.567428589E0
1.123012130E1,4.974607229E-1,3.557315350E0,-2.677549839E0
1.124012130E1,5.775781870E-1,3.493883133E0,-2.946803808E0
1.125012127E1,6.417722106E-1,3.482562542E0,-3.212543011E0
1.126012127E1,6.332398057E-1,3.426450729E0,-3.624527931E0
1.127012127E1,6.266647577E-1,3.303198814E0,-3.595551968E0
1.128012127E1,5.140876174E-1,3.059995174E0,-3.504065037E0
1.129012130E1,3.918675780E-1,2.757601261E0,-3.370324135E0
1.130012130E1,4.024963379E-1,2.091330051E0,-3.061988831E0
1.131012133E1,4.148067236E-1,1.933688164E0,-2.962929726E0
1.132012133E1,4.672470987E-1,1.536013603E0,-2.889242649E0
1.133012133E1,5.486022830E-1,1.288589478E0,-3.120613337E0
1.134012133E1,6.362218261E-1,9.095492363E-1,-3.788966656E0
1.135012133E1,6.154533625E-1,8.615732193E-1,-3.857649803E0
1.136012133E1,5.975339413E-1,7.604813576E-1,-4.338343620E0
1.137012133E1,4.919060469E-1,6.484909058E-1,-4.703565121E0
1.138012133E1,4.021012187E-1,5.116658211E-1,-4.990193844E0
1.139012133E1,3.588679433E-1,4.072642326E-1,-5.019711494E0
1.140012133E1,2.080355585E-1,2.217130661E-1,-4.832284927E0
1.141012133E1,1.667316854E-1,3.638505936E-2,-4.569372654E0
1.142012133E1,1.777672768E-1,-2.072606087E-1,-4.327782631E0
1.143012137E1,2.387438715E-1,-3.716568947E-1,-4.177726746E0
1.144012137E1,3.229331672E-1,-5.017609596E-1,-4.040255070E0
1.145012133E1,3.038543761E-1,-5.262250900E-1,-4.005873203E0
1.146012133E1,1.784162521E-1,-6.896128654E-1,-3.959312916E0
1.147012137E1,1.237920821E-1,-6.931052208E-1,-3.959808588E0
1.148012133E1,-1.151028275E-2,-6.495485306E-1,-4.138566017E0
1.149012133E1,-1.689445972E-2,-6.162700653E-1,-4.196300030E0
1.150012133E1,-1.605403423E-2,-7.596874237E-1,-4.050744057E0
1.151012137E1,-2.573445439E-2,-7.843885422E-1,-4.014477730E0
1.152012137E1,-4.263079166E-2,-1.058761120E0,-3.867835283E0
1.153012137E1,-2.060890198E-2,-1.325276375E0,-3.764993906E0
1.154012137E1,-1.221711934E-1,-1.932204723E0,-3.749863386E0
1.155012136E1,-1.550416350E-1,-2.047781467E0,-3.734163046E0
1.156012136E1,-2.053445876E-1,-2.383760929E0,-3.853251457E0
1.157012136E1,-1.846791208E-1,-2.661867619E0,-3.870813847E0
1.158012136E1,-2.794271708E-1,-2.926646233E0,-3.848093510E0
1.159012133E1,-3.693193495E-1,-3.098866940E0,-3.885949612E0
1.160012133E1,-5.012836456E-1,-3.298644543E0,-4.031464577E0
1.161012130E1,-6.079039574E-1,-3.479076385E0,-4.163516521E0
1.162012130E1,-6.287208200E-1,-3.603083134E0,-4.376117706E0
1.163012130E1,-5.089303851E-1,-3.704339981E0,-4.619040012E0
1.164012130E1,-3.323335648E-1,-3.762862682E0,-4.919898510E0
1.165012130E1,-2.292478979E-1,-3.789824963E0,-5.208266258E0
1.166012130E1,-9.950476885E-2,-3.714911938E0,-5.777976036E0
1.167012133E1,-6.376212835E-2,-3.699623585E0,-5.810384750E0
1.168012136E1,-7.333832979E-2,-3.589528561E0,-5.984975815E0
1.169012136E1,-5.148777366E-2,-3.454691887E0,-6.294801712E0
1.170012136E1,-1.229742169E-1,-2.997466564E0,-6.446421146E0
1.171012136E1,-1.604966819E-1,-2.928106785E0,-6.386634827E0
1.172012136E1,-2.211658359E-1,-2.363154888E0,-6.158759594E0
1.173012133E1,-1.642988622E-1,-1.846607208E0,-6.089704990E0
1.174012133E1,-1.806687117E-1,-1.022441387E0,-6.209128857E0
1.175012133E1,-1.487559974E-1,-9.103746414E-1,-6.210996628E0
1.176012133E1,-6.119284034E-2,-5.249834061E-1,-6.045280933E0
1.177012130E1,1.817673445E-2,-2.773160934E-1,-5.565007210E0
1.178012130E1,8.910712600E-2,7.111549377E-3,-5.135986805E0
1.179012130E1,5.693787336E-2,1.685504913E-1,-4.668659687E0
1.180012130E1,-8.290612698E-2,2.657527924E-1,-4.263754368E0
1.181012126E1,-3.426701128E-1,2.800559998E-1,-4.147501469E0
1.182012126E1,-6.136357784E-1,1.910257339E-1,-4.190499783E0
1.183012126E1,-7.512052059E-1,8.249092102E-2,-4.256234646E0
1.184012126E1,-8.158304691E-1,-1.380062103E-1,-4.202640057E0
1.185012126E1,-7.438805103E-1,-4.419078827E-1,-4.275954723E0
1.186012126E1,-5.115208030E-1,-1.040071964E0,-4.471059799E0
1.187012129E1,-4.717581272E-1,-1.142643452E0,-4.531514168E0
1.188012129E1,-3.692534268E-1,-1.480094910E0,-4.715626717E0
1.189012129E1,-3.013549447E-1,-1.676908970E0,-4.917560577E0
1.190012129E1,-3.258499205E-1,-2.120810986E0,-5.218925953E0
1.191012129E1,-3.138777316E-1,-2.181447029E0,-5.290420055E0
1.192012129E1,-3.025028110E-1,-2.473274231E0,-5.303299427E0
1.193012133E1,-3.787397742E-1,-2.820642948E0,-5.196583271E0
1.194012133E1,-2.100552619E-1,-3.374782085E0,-4.895826817E0
1.195012136E1,-1.997201890E-1,-3.371730804E0,-4.929344177E0
1.196012136E1,-1.391248405E-1,-3.643296719E0,-4.838723660E0
1.197012133E1,-8.878827095E-2,-3.787345886E0,-4.765200615E0
1.198012129E1,5.727759004E-2,-3.935457706E0,-4.706558228E0
1.199012129E1,9.024271369E-2,-3.975386620E0,-4.803741455E0
1.200012129E1,9.275323153E-2,-3.928998947E0,-4.919910431E0
1.201012129E1,7.652196288E-2,-3.760324478E0,-4.940215588E0
1.202012129E1,1.201997995E-1,-3.574863434E0,-4.883551598E0
1.203012129E1,1.693951488E-1,-3.384905815E0,-4.976799011E0
1.204012129E1,7.942149043E-2,-3.215413094E0,-5.242454529E0
1.205012129E1,6.804040074E-2,-2.970596313E0,-5.555705547E0
1.206012129E1,6.961232424E-2,-2.554087162E0,-5.966044426E0
1.207012129E1,9.445407987E-2,-2.407563686E0,-6.048697948E0
1.208012129E1,3.136160076E-1,-2.012093067E0,-6.059833050E0
1.209012129E1,3.181827068E-1,-1.977129936E0,-6.106160164E0
1.210012129E1,2.675523162E-1,-6.310129166E-1,-5.975166321E0
1.211012129E1,2.415463924E-1,-4.584274292E-1,-6.021660328E0
1.212012129E1,9.655454755E-2,2.994217873E-1,-5.801915169E0
1.213012129E1,-7.597485185E-2,9.456791878E-1,-5.143556595E0
1.214012129E1,-2.765050232E-1,1.788566589E0,-3.423239708E0
1.215012129E1,-2.438401729E-1,1.972512245E0,-3.074026346E0
1.216012129E1,-1.386164576E-1,2.323725700E0,-2.074205399E0
1.217012126E1,1.747632027E-2,2.715172768E0,-1.353389263E0
1.218012129E1,1.349398494E-2,2.956484795E0,-8.510465622E-1
1.219012129E1,8.797843754E-2,3.058884144E0,-6.597909927E-1
1.220012129E1,4.199259579E-1,3.163489819E0,-6.721720695E-1
1.221012129E1,6.415393353E-1,3.090241909E0,-9.741544724E-1
1.222012129E1,6.228329539E-1,3.023378849E0,-1.561878204E0
1.223012126E1,5.604124069E-1,3.006684303E0,-1.926466942E0
1.224012126E1,4.979296923E-1,2.783875465E0,-2.415428162E0
1.225012122E1,5.516335964E-1,2.608204365E0,-2.819402218E0
1.226012122E1,5.790962577E-1,2.361098289E0,-3.795867205E0
1.227012122E1,5.644309521E-1,2.363774776E0,-3.978187084E0
1.228012122E1,5.161369443E-1,2.476061821E0,-4.351512909E0
1.229012122E1,6.167641282E-1,2.565912724E0,-4.549181938E0
1.230012122E1,8.368819952E-1,2.630028725E0,-4.859903336E0
1.231012126E1,8.286746144E-1,2.643563271E0,-4.882936001E0
1.232012126E1,7.803766131E-1,2.772314072E0,-5.021114349E0
1.233012126E1,8.113800883E-1,2.936602116E0,-5.087089539E0
1.234012126E1,7.922757268E-1,3.131019115E0,-4.517591000E0
1.235012126E1,7.752299309E-1,3.201960087E0,-4.372828484E0
1.236012126E1,7.600722313E-1,3.477551460E0,-3.735748529E0
1.237012126E1,6.078262329E-1,3.865440369E0,-3.076438904E0
1.238012126E1,4.118415713E-1,4.349140167E0,-2.256039143E0
1.239012126E1,2.369749695E-1,4.722682953E0,-1.690752506E0
1.240012126E1,2.552031279E-1,4.773103237E0,-1.738079071E0
1.241012126E1,-2.727555931E-1,5.608728886E0,-7.098312378E-1
1.242012126E1,-2.627592683E-1,5.872859955E0,-2.901577950E-1
1.243012129E1,-1.183848307E-1,6.057723999E0,2.205657959E-2
1.244012129E1,-1.141537651E-1,6.089157104E0,-5.906581879E-3
1.245012129E1,2.456954420E-1,6.086290836E0,-4.745731354E-1
1.246012129E1,2.619482279E-1,5.955922127E0,-9.434800148E-1
1.247012132E1,2.516831458E-1,5.971303940E0,-1.077837944E0
1.248012129E1,2.192193866E-1,6.064139366E0,-1.458058834E0
1.249012129E1,2.216705680E-1,6.059606552E0,-1.454127312E0
1.250012129E1,3.006279469E-1,6.034208775E0,-2.255530834E0
1.251012132E1,3.211688995E-1,6.019465923E0,-2.303973675E0
1.252012132E1,2.832769752E-1,5.974634171E0,-2.453834534E0
1.253012132E1,2.897431254E-1,5.868281841E0,-2.475006580E0
1.254012132E1,5.566369891E-1,5.782370567E0,-2.316819668E0
1.255012165E1,6.049975753E-1,5.821885586E0,-2.291085720E0
1.256012165E1,7.646405697E-1,5.978735924E0,-2.238704205E0
1.257012165E1,7.631170154E-1,6.172154903E0,-2.404765129E0
1.258012165E1,7.302415967E-1,6.452970982E0,-2.694603443E0
1.259012165E1,7.896206379E-1,6.720156193E0,-2.874965191E0
1.260012165E1,8.686259389E-1,6.989822865E0,-2.780062199E0
1.261012162E1,9.445393085E-1,7.338183403E0,-2.514626026E0
1.261989245E1,1.139099598E0,7.880272388E0,-1.839017391E0
1.262989245E1,1.297534466E0,8.163372040E0,-1.522139072E0
1.263989245E1,1.428694367E0,8.506791115E0,-1.111979485E0
1.264989245E1,1.407237291E0,8.660252571E0,-7.156624794E-1
1.265989245E1,1.198901296E0,8.740299225E0,-1.120409966E-1
1.266989249E1,1.174233913E0,8.775241852E0,-3.344917297E-2
1.267989252E1,9.865083098E-1,8.694476128E0,2.369790077E-1
1.268989252E1,8.343473673E-1,8.515773773E0,3.652229309E-1
1.269989252E1,7.325649261E-1,8.292072296E0,1.637892723E-1
1.270989252E1,7.084056139E-1,8.135848999E0,6.904745102E-2
1.271989255E1,7.115161419E-1,7.678044796E0,-2.279548645E-1
1.272989252E1,7.366052866E-1,7.274217129E0,-6.776041985E-1
1.273989252E1,7.283685207E-1,7.239210606E0,-6.464338303E-1
1.274989252E1,5.553612709E-1,6.676974773E0,-1.340288639E0
1.275989252E1,4.276956916E-1,6.198936462E0,-1.766298294E0
1.276989248E1,4.034576416E-1,5.881415844E0,-2.026821136E0
1.277989248E1,3.362732828E-1,5.534759998E0,-2.121102333E0
1.278989248E1,3.998772800E-1,5.312922478E0,-2.066600800E0
1.279989248E1,4.638817012E-1,5.019703865E0,-2.071736336E0
1.280989245E1,4.575821459E-1,4.784021854E0,-2.006966114E0
1.281989245E1,4.586523771E-1,4.392387867E0,-2.041962147E0
1.282989245E1,5.762744546E-1,4.121475697E0,-2.084832191E0
1.283989245E1,6.863899827E-1,3.752701759E0,-2.207023621E0
1.284989212E1,7.559353113E-1,3.400352001E0,-2.366646290E0
1.285989212E1,7.260279655E-1,2.858297825E0,-2.726635456E0
1.286989215E1,6.724122763E-1,2.720063210E0,-2.764883041E0
1.287989215E1,5.586426258E-1,2.506915092E0,-3.020160198E0
1.288989215E1,4.919117093E-1,2.338443279E0,-3.487525940E0
1.289989215E1,3.360692859E-1,2.232536793E0,-4.278256416E0
1.290989215E1,2.769142091E-1,2.174590111E0,-4.290964127E0
1.291989215E1,2.134105563E-1,2.243029118E0,-4.375129223E0
1.292989218E1,1.452259421E-1,2.402882099E0,-4.234904289E0
1.293989218E1,-3.064662218E-3,2.673239231E0,-3.669131517E0
1.294989222E1,-1.070201397E-2,2.720142841E0,-3.612650633E0
1.295989222E1,2.498728037E-2,2.924408436E0,-3.416580200E0
1.296989218E1,1.106521785E-1,3.069355965E0,-3.283136368E0
1.297989215E1,1.450575888E-1,3.163300514E0,-3.225450993E0
1.298989215E1,2.085978985E-1,3.246086597E0,-3.225953579E0
1.299989215E1,2.309089303E-1,3.319756031E0,-3.162255287E0
1.300989215E1,1.780936122E-1,3.355677605E0,-3.025010347E0
1.301989211E1,-4.738980532E-2,3.262582302E0,-2.847453117E0
1.302989211E1,-1.270902455E-1,3.224325180E0,-2.810806751E0
1.303989211E1,-1.861322224E-1,3.142118931E0,-2.861475706E0
1.304989211E1,-1.781371236E-1,2.980251312E0,-2.913317442E0
1.305989211E1,-8.215659857E-2,2.636225700E0,-3.086429596E0
1.306989211E1,-3.899082541E-2,2.534622192E0,-3.077607632E0
1.307989211E1,-1.050865650E-2,2.249231339E0,-3.059108257E0
1.308989211E1,1.297596097E-2,1.968755245E0,-3.054321766E0
1.309989211E1,2.205655277E-1,1.445736885E0,-3.191467524E0
1.310989211E1,2.510511279E-1,1.276901722E0,-3.231299162E0
1.311989211E1,3.103852272E-1,8.662858009E-1,-3.415595055E0
1.312989211E1,4.083740115E-1,5.297904015E-1,-3.753528595E0
1.313989211E1,4.913148880E-1,3.546571732E-2,-4.427207470E0
1.314989211E1,5.099642873E-1,-5.484867096E-2,-4.466869354E0
1.315989211E1,6.739030480E-1,-2.647204399E-1,-4.798271179E0
1.316989208E1,6.274250746E-1,-5.010156631E-1,-4.998277664E0
1.317989211E1,4.180300236E-1,-8.126149178E-1,-4.887201786E0
1.318989211E1,1.585274339E-1,-1.064793110E0,-4.539740086E0
1.319989211E1,4.251241684E-2,-1.310709000E0,-3.993755341E0
1.320989211E1,2.259671688E-2,-1.511411667E0,-3.656296492E0
1.321989211E1,-3.820317984E-2,-1.762586117E0,-3.440437317E0
1.322989208E1,-1.183296144E-1,-1.932073116E0,-3.427337170E0
1.323989208E1,-1.996713877E-1,-2.152369499E0,-3.448069811E0
1.324989204E1,-2.642787397E-1,-2.366199017E0,-3.636113167E0
1.325989204E1,-3.260594904E-1,-2.693037987E0,-4.003406048E0
1.326989204E1,-3.260762990E-1,-2.778434753E0,-4.030242443E0
1.327989204E1,-3.301828206E-1,-2.957860947E0,-4.342137337E0
1.328989204E1,-4.312526584E-1,-3.168256283E0,-4.621808052E0
1.329989204E1,-5.969020724E-1,-3.358283997E0,-5.010324001E0
1.330989208E1,-5.754173994E-1,-3.368591785E0,-5.013336658E0
1.331989208E1,-4.882725179E-1,-3.284939766E0,-5.206113338E0
1.332989208E1,-4.892207086E-1,-3.320927620E0,-5.148349285E0
1.333989208E1,-1.754280329E-1,-3.090808868E0,-5.917643547E0
1.334989194E1,-1.750854850E-1,-3.101963043E0,-5.927291870E0
1.335989194E1,-2.143847644E-1,-2.923038006E0,-6.116738796E0
1.336989194E1,-1.834847927E-1,-2.716503620E0,-6.110828876E0
1.337989194E1,-2.549894750E-1,-2.458168983E0,-5.912558079E0
1.338989194E1,-3.142665625E-1,-2.260507107E0,-5.728075504E0
1.339989194E1,-3.476933837E-1,-2.042288780E0,-5.564309120E0
1.340989194E1,-2.960581183E-1,-1.923658848E0,-5.509110451E0
1.341989194E1,-1.744194627E-1,-1.677442074E0,-5.272325516E0
1.342989198E1,2.393192053E-2,-1.499854088E0,-5.059977531E0
1.343989198E1,2.284536958E-1,-1.246006966E0,-4.908562660E0
1.344989198E1,2.879772782E-1,-9.909243584E-1,-4.915033340E0
1.345989198E1,2.766048312E-1,-6.486854553E-1,-5.074402809E0
1.346989201E1,2.783786058E-1,-6.453971863E-1,-5.080357075E0
1.347989198E1,1.617007256E-1,-3.269472122E-1,-5.352701664E0
1.348989198E1,1.103488207E-1,-2.313795090E-1,-5.461557865E0
1.349989198E1,-1.069543362E-1,-3.312730789E-1,-5.377430916E0
1.350989201E1,-1.127475798E-1,-3.651676178E-1,-5.364358425E0
1.351989201E1,-7.366496325E-2,-4.649071693E-1,-5.211074829E0
1.352989201E1,1.032258272E-1,-5.523719788E-1,-5.014076710E0
1.353989201E1,2.463105023E-1,-6.978716850E-1,-4.903519154E0
1.354989161E1,2.184279263E-1,-7.274870872E-1,-4.933180332E0
1.355989161E1,1.334697306E-1,-8.327860832E-1,-4.968954086E0
1.356989161E1,5.766451359E-4,-1.013707638E0,-4.972559929E0
1.357989161E1,-6.371787190E-2,-1.140470505E0,-4.927891254E0
1.358989161E1,-6.071996689E-2,-1.188852310E0,-4.911802292E0
1.359989161E1,-9.197860956E-2,-1.285732746E0,-4.933735371E0
1.360989157E1,-2.170069665E-1,-1.426384926E0,-4.952823639E0
1.361989157E1,-2.395163029E-1,-1.553311825E0,-5.009753704E0
1.362989157E1,-2.175665051E-1,-1.620893478E0,-5.121351719E0
1.363989157E1,-2.000785023E-1,-1.724705219E0,-5.184796333E0
1.364989171E1,-1.557223201E-1,-1.821332455E0,-5.200469971E0
1.365989171E1,-8.521482348E-2,-2.123918056E0,-4.971810341E0
1.366989174E1,-4.819104075E-2,-2.124729156E0,-4.944252968E0
1.367989177E1,7.392024994E-2,-2.228417397E0,-4.796879768E0
1.368989177E1,1.460296512E-1,-2.341842175E0,-4.682545662E0
1.369989177E1,-2.901640534E-2,-2.438765049E0,-4.206034660E0
1.370989177E1,-5.173587799E-2,-2.423732758E0,-4.180926800E0
1.371989177E1,-2.115742862E-1,-2.420115471E0,-4.052468300E0
1.372989174E1,-3.805605769E-1,-2.390957832E0,-4.127697468E0
1.373989174E1,-6.103479862E-1,-2.353436947E0,-4.219396591E0
1.374989174E1,-5.962815881E-1,-2.290780544E0,-4.298862934E0
1.375989174E1,-6.050012112E-1,-2.164863586E0,-4.444976807E0
1.376989171E1,-5.054677725E-1,-2.013744354E0,-4.504853249E0
1.377989170E1,-2.151768357E-1,-1.834173203E0,-4.520246983E0
1.378989170E1,1.276744902E-1,-1.692316055E0,-4.511384010E0
1.379989170E1,3.022928238E-1,-1.451796055E0,-4.437527180E0
1.380989167E1,4.196844101E-1,-1.232019424E0,-4.287113190E0
1.381989167E1,5.037050247E-1,-9.483823776E-1,-3.967700720E0
1.382989167E1,4.022074342E-1,-7.052407265E-1,-3.863263130E0
1.383989167E1,3.085270226E-1,-4.061880112E-1,-3.935951948E0
1.384989207E1,1.369320005E-1,-1.424069405E-1,-4.041954994E0
1.385989207E1,-2.102810144E-1,3.070516586E-1,-4.057546616E0
1.386989210E1,-2.326157540E-1,4.474892616E-1,-4.105818748E0
1.387989210E1,-2.578273416E-1,7.219820023E-1,-4.215612411E0
1.388989210E1,-2.628332078E-1,1.148106575E0,-4.253679276E0
1.389989210E1,-6.963555515E-2,1.815625191E0,-4.130178928E0
1.390989210E1,-3.774769232E-2,1.924240112E0,-4.074170113E0
1.391989210E1,1.096967831E-1,2.231680870E0,-3.552698374E0
1.392989214E1,1.978780478E-1,2.490472794E0,-3.055568695E0
1.393989214E1,3.539062142E-1,2.951691628E0,-2.220734119E0
1.394989217E1,3.622340858E-1,3.031158447E0,-2.128790379E0
1.395989217E1,3.397127390E-1,3.112426281E0,-1.863269806E0
1.396989214E1,2.592819333E-1,3.112965584E0,-1.576566219E0
1.397989210E1,1.779582798E-1,3.071446896E0,-1.344723701E0
1.398989210E1,2.151271403E-1,3.114227295E0,-1.393071175E0
1.399989210E1,3.407731950E-1,3.148727894E0,-1.492783546E0
1.400989210E1,4.655509591E-1,3.178732395E0,-1.730151176E0
1.401989210E1,6.473201513E-1,3.207328796E0,-2.318858147E0
1.402989210E1,8.764147758E-1,3.241706848E0,-2.763679504E0
1.403989210E1,1.099870086E0,3.370604992E0,-3.202667713E0
1.404989210E1,1.118393540E0,3.488498211E0,-3.532700062E0
1.405989210E1,1.077939987E0,3.710085392E0,-3.923217535E0
1.406989210E1,1.053333998E0,3.768831730E0,-3.884791136E0
1.407989210E1,9.218922853E-1,3.876810551E0,-3.617277622E0
1.408989210E1,9.234389067E-1,3.892975807E0,-3.630794048E0
1.409989210E1,7.583572865E-1,4.354644775E0,-2.353231430E0
1.410989210E1,7.442554832E-1,4.414242268E0,-2.282670498E0
1.411989210E1,7.573353648E-1,4.464674473E0,-2.054738998E0
1.412989210E1,8.429926634E-1,4.497512817E0,-1.929391861E0
1.413989210E1,8.760811090E-1,4.546372414E0,-1.988161087E0
1.414989210E1,8.517107964E-1,4.585090637E0,-2.027732372E0
1.415989210E1,7.453228235E-1,4.652214050E0,-2.134519577E0
1.416989207E1,5.246116519E-1,4.719988823E0,-2.122612476E0
1.417989210E1,3.686342835E-1,4.885487080E0,-2.103207111E0
1.418989210E1,3.236319423E-1,4.993181705E0,-2.085927963E0
1.419989210E1,3.228939772E-1,4.994907379E0,-2.087314606E0
1.420989210E1,1.299446374E-1,5.069573879E0,-2.044600487E0
1.421989210E1,-9.808321297E-2,5.209630966E0,-2.177733898E0
1.422989207E1,-1.990308762E-1,5.390740395E0,-2.330754280E0
1.423989207E1,-3.359289765E-1,5.504112244E0,-2.322795391E0
1.424989203E1,-3.057495356E-1,5.623847485E0,-2.141327381E0
1.425989203E1,-3.269859403E-2,5.897222996E0,-1.502432346E0
1.426989203E1,4.890114069E-3,6.006090164E0,-1.373564243E0
1.427989203E1,2.536953688E-1,6.363109112E0,-1.269816875E0
1.428989203E1,5.217370987E-1,6.600495815E0,-1.304891109E0
1.429989203E1,1.210872889E0,6.919606686E0,-1.263532162E0
1.430989207E1,1.296091199E0,6.957591534E0,-1.225646019E0
1.431989207E1,1.640256405E0,7.171165466E0,-1.020786762E0
1.432989207E1,1.767651200E0,7.358927250E0,-6.464109421E-1
1.433989207E1,1.457098007E0,7.802397251E0,-4.849147797E-1
1.434989207E1,1.460965395E0,7.807049751E0,-4.887490273E-1
1.435989207E1,1.158508420E0,8.273632050E0,-7.185912132E-1
1.436989207E1,7.887843847E-1,8.570998192E0,-1.009894848E0
1.437989207E1,4.893915653E-1,9.031749725E0,-1.230072498E0
1.438989207E1,3.817549348E-1,9.325187683E0,-1.304124355E0
1.439989207E1,3.074818850E-1,9.549839973E0,-1.133445263E0
1.440989207E1,3.548020124E-1,9.573308945E0,-4.775519371E-1
1.441989207E1,6.548418999E-1,9.516181946E0,5.427122116E-1
1.442989210E1,8.551382422E-1,9.354433060E0,9.568705559E-1
1.443989210E1,1.214029074E0,9.120607376E0,1.274641037E0
1.444989210E1,1.516302586E0,8.863338470E0,1.372256756E0
1.445989210E1,1.556994915E0,8.176351547E0,1.104654312E0
1.446989213E1,1.503370047E0,8.058158875E0,1.008502960E0
1.447989210E1,1.324336410E0,7.699279785E0,5.739002228E-1
1.448989210E1,1.141202092E0,7.362323761E0,2.719068527E-2
1.449989210E1,9.696913958E-1,6.815308094E0,-7.628211975E-1
1.450989213E1,9.441988468E-1,6.630251408E0,-9.405751228E-1
1.451989213E1,9.290730357E-1,6.255680561E0,-1.512770653E0
1.452989213E1,8.869319558E-1,5.932245731E0,-2.118764877E0
1.453989213E1,7.061092854E-1,5.482661724E0,-2.937981129E0
1.454989190E1,6.607174277E-1,5.386182308E0,-2.973974228E0
1.455989190E1,4.738016129E-1,5.116175175E0,-3.033874035E0
1.456989190E1,4.372201562E-1,4.954423428E0,-2.834469795E0
1.457989190E1,5.620701313E-1,4.866981983E0,-2.361171722E0
1.458989190E1,6.219087839E-1,4.720577240E0,-2.002549171E0
1.459989190E1,6.216840744E-1,4.596091270E0,-1.818839550E0
1.460989186E1,6.299402714E-1,4.426379681E0,-1.809913158E0
1.461989186E1,6.025137305E-1,4.329742432E0,-1.799746037E0
1.462989186E1,5.918095112E-1,4.209686279E0,-1.842820168E0
1.463989186E1,5.281894803E-1,4.058385849E0,-2.017504215E0
1.464989186E1,4.148059487E-1,3.913732529E0,-2.237505436E0
1.465989186E1,2.181095183E-1,3.711308956E0,-2.674788952E0
1.466989190E1,2.089670002E-1,3.631101131E0,-2.716921329E0
1.467989193E1,1.858582199E-1,3.458595276E0,-2.814887047E0
1.468989193E1,1.251379550E-1,3.304772377E0,-2.904853344E0
1.469989193E1,6.745159626E-2,2.908620834E0,-3.087330103E0
1.470989193E1,6.606161594E-2,2.821095943E0,-3.060768366E0
1.471989193E1,9.856951237E-2,2.573039055E0,-3.009552717E0
1.472989190E1,1.891010404E-1,2.252774239E0,-2.947765350E0
1.473989190E1,2.467433214E-1,1.685109138E0,-2.958745718E0
1.474989190E1,2.624443769E-1,1.551389217E0,-2.952801466E0
1.475989190E1,3.852724433E-1,1.178041935E0,-3.225925922E0
1.476989186E1,4.842256904E-1,8.512363434E-1,-3.515824318E0
1.477989186E1,4.935771823E-1,5.801057816E-1,-3.850661993E0
1.478989186E1,4.550535083E-1,4.510607719E-1,-4.053390026E0
1.479989186E1,3.163656592E-1,2.905941010E-1,-4.247375488E0
1.480989183E1,2.048338652E-1,2.694416046E-2,-4.270601749E0
1.481989183E1,4.672652483E-2,-2.645797729E-1,-4.449931145E0
1.482989183E1,3.014028072E-2,-5.118441582E-1,-4.455376625E0
1.483989183E1,-4.557007551E-2,-8.970513344E-1,-4.447032928E0
1.484989206E1,-6.898820400E-3,-1.282305241E0,-4.421312332E0
1.485989206E1,1.648509502E-1,-1.921510220E0,-4.380467415E0
1.486989209E1,2.133867145E-1,-2.110831738E0,-4.288579941E0
1.487989209E1,3.533974290E-1,-2.477800369E0,-4.147957802E0
1.488989209E1,4.708974361E-1,-2.762468338E0,-4.070259571E0
1.489989209E1,3.665659428E-1,-3.210455418E0,-4.274526119E0
1.490989209E1,4.097511172E-1,-3.290644646E0,-4.290223598E0
1.491989209E1,4.293866158E-1,-3.462448120E0,-4.407646656E0
1.492989213E1,1.666120887E-1,-3.555368423E0,-4.577487946E0
1.493989213E1,-8.135771751E-2,-3.662296295E0,-4.910273552E0
1.494989216E1,-1.185711622E-1,-3.721982479E0,-4.880927563E0
1.495989216E1,-1.881231070E-1,-3.778708935E0,-4.986697197E0
1.496989213E1,-2.377235889E-1,-3.784197330E0,-4.976885796E0
1.497989209E1,-3.172121346E-1,-3.889157295E0,-4.871025562E0
1.498989209E1,-2.909160852E-1,-3.933693409E0,-4.584921837E0
1.499989209E1,-2.472839355E-1,-3.933156013E0,-4.220506668E0
1.500989209E1,-3.284015059E-1,-3.918729305E0,-4.116723061E0
1.501989209E1,-4.749301970E-1,-3.764736652E0,-4.008219719E0
1.502989209E1,-6.544006467E-1,-3.684814930E0,-4.099793434E0
1.503989209E1,-1.023966908E0,-3.602798939E0,-4.447884083E0
1.504989209E1,-1.226470947E0,-3.295358181E0,-4.901790142E0
1.505989209E1,-1.252129793E0,-2.742831230E0,-5.678348541E0
1.506989209E1,-1.188104033E0,-2.670658588E0,-5.791952610E0
1.507989209E1,-1.022550225E0,-2.461434841E0,-6.036187172E0
1.508989209E1,-9.739645720E-1,-2.367380142E0,-6.193805695E0
1.509989209E1,-6.931105852E-1,-2.026631832E0,-6.129448891E0
1.510989209E1,-6.233816743E-1,-1.975691795E0,-6.113437176E0
1.511989209E1,-5.238935351E-1,-1.799108505E0,-6.144175529E0
1.512989209E1,-4.444758296E-1,-1.547235966E0,-6.178571701E0
1.513989209E1,-4.417431951E-1,-1.166930676E0,-6.042869091E0
1.514989182E1,-4.345280528E-1,-1.164532185E0,-6.047983170E0
1.515989182E1,-4.434178472E-1,-1.072221279E0,-5.733213902E0
1.516989179E1,-4.386038780E-1,-9.926815033E-1,-5.395590305E0
1.517989182E1,-4.277552962E-1,-1.033843994E0,-4.907636642E0
1.518989182E1,-3.646716774E-1,-1.157916069E0,-4.536407948E0
1.519989182E1,-2.566016018E-1,-1.368016720E0,-4.184657097E0
1.520989182E1,-7.468318939E-2,-1.594025135E0,-3.969025373E0
1.521989182E1,1.011386514E-1,-1.983385086E0,-3.920501709E0
1.522989179E1,1.754356027E-1,-2.290649414E0,-4.013254166E0
1.523989179E1,1.773516536E-1,-2.590422630E0,-4.215643883E0
1.524989176E1,1.085234880E-1,-2.755747318E0,-4.504006386E0
1.525989176E1,4.353445768E-2,-2.874393463E0,-4.712016106E0
1.526989176E1,8.748948574E-3,-2.844834805E0,-4.721295357E0
1.527989176E1,-5.061924458E-3,-2.826337814E0,-4.655528545E0
1.528989176E1,-3.865706921E-2,-2.744920731E0,-4.566804409E0
1.529989176E1,1.950991154E-2,-2.728494644E0,-4.393555164E0
1.530989179E1,3.348010778E-2,-2.692173004E0,-4.430572987E0
1.531989179E1,1.059507132E-1,-2.639239311E0,-4.501886845E0
1.532989179E1,3.485459089E-2,-2.534127235E0,-4.619187832E0
1.533989179E1,-7.374590635E-2,-2.316801071E0,-4.718237877E0
1.534989179E1,-9.013810754E-2,-2.220946789E0,-4.735654831E0
1.535989179E1,-3.022815585E-1,-2.089202881E0,-4.450894356E0
1.536989179E1,-4.063763022E-1,-1.932810783E0,-4.044254303E0
1.537989179E1,-4.988894165E-1,-1.840523720E0,-3.457846880E0
1.538989209E1,-5.057254434E-1,-1.755833626E0,-3.262606382E0
1.539989209E1,-2.191911936E-1,-1.559011936E0,-3.319193602E0
1.540989209E1,1.155394316E-2,-1.444283962E0,-3.595753193E0
1.541989209E1,2.228314579E-1,-1.456256390E0,-3.784420252E0
1.542989212E1,3.276081383E-1,-1.368208885E0,-3.846497297E0
1.543989212E1,4.366739392E-1,-1.060728550E0,-4.239284039E0
1.544989239E1,5.544233322E-1,-7.686862946E-1,-4.656445503E0
1.545989239E1,5.147417784E-1,2.158775330E-1,-4.901352882E0
1.546989242E1,4.878908098E-1,4.612584114E-1,-4.878710747E0
1.547989239E1,2.323738933E-1,1.158275604E0,-4.783533096E0
1.548989239E1,-5.553090572E-2,1.766706467E0,-4.549799919E0
1.549989239E1,-3.133721054E-1,2.320252895E0,-3.856227875E0
1.550989242E1,-2.890887260E-1,2.473162651E0,-3.642335653E0
1.551989242E1,-1.697257161E-1,2.817647934E0,-2.838407993E0
1.552989242E1,-9.005716443E-2,2.971243858E0,-2.137112141E0
1.553989242E1,1.897919476E-1,3.502072334E0,-2.068292141E0
1.554989242E1,2.032512724E-1,3.547801495E0,-2.139425755E0
1.555989242E1,4.451841414E-1,3.719460964E0,-2.502485752E0
1.556989242E1,6.042389870E-1,3.776934624E0,-2.538212299E0
1.557989242E1,7.523907423E-1,3.733087540E0,-2.393802643E0
1.558989242E1,8.173964024E-1,3.772212505E0,-2.104705811E0
1.559989242E1,6.507691145E-1,3.768544674E0,-1.425896645E0
1.560989238E1,5.878510475E-1,3.815453053E0,-7.353644371E-1
1.561989239E1,5.744435787E-1,3.822399139E0,-6.777577400E-1
1.562989239E1,5.962114334E-1,3.727402687E0,-1.241678715E0
1.563989239E1,5.038457513E-1,3.527375698E0,-2.139194489E0
1.564989239E1,6.330626607E-1,3.376662731E0,-2.997973442E0
1.565989239E1,8.327989578E-1,3.182466984E0,-4.157666683E0
1.566989242E1,8.120467067E-1,3.181880951E0,-4.337587357E0
1.567989245E1,7.418797016E-1,3.208894253E0,-4.446694374E0
1.568989215E1,4.588426948E-1,3.210046291E0,-4.093908310E0
1.569989215E1,1.538547873E-1,3.198788643E0,-2.612655163E0
1.570989215E1,1.107417643E-1,3.185498714E0,-2.424167633E0
1.571989215E1,6.286752224E-2,3.040230274E0,-1.932955742E0
1.572989212E1,1.120662987E-1,3.240187645E0,-1.913895607E0
1.573989212E1,3.869590461E-1,3.342570782E0,-2.379301071E0
1.574989212E1,4.703576267E-1,3.392134666E0,-2.547494411E0
1.575989212E1,6.766884327E-1,3.411585808E0,-3.032947540E0
1.576989208E1,7.327350378E-1,3.483126163E0,-3.640240192E0
1.577989208E1,7.530477643E-1,3.769031048E0,-4.076642990E0
1.578989208E1,6.787145734E-1,4.074546814E0,-3.900484324E0
1.579989208E1,3.484175801E-1,4.265113831E0,-3.479637384E0
1.580989205E1,6.854102015E-3,4.552025795E0,-2.919870853E0
1.581989205E1,-1.408900917E-1,4.856769085E0,-2.041760921E0
1.582989205E1,2.661328018E-2,4.930734634E0,-1.705790997E0
1.583989205E1,3.884611130E-1,4.882891655E0,-1.455840588E0
1.584989205E1,7.854864597E-1,5.042484283E0,-1.367827892E0
1.585989205E1,1.201256275E0,5.641541481E0,-1.896973133E0
1.586989208E1,1.194980860E0,5.799268246E0,-2.012157440E0
1.587989208E1,1.316029549E0,6.576395035E0,-2.259480000E0
1.588989208E1,1.397505999E0,7.178575516E0,-2.555884361E0
1.589989208E1,1.141715527E0,8.371494293E0,-2.696194172E0
1.590989208E1,1.068946362E0,8.522880554E0,-2.659832954E0
1.591989208E1,8.399856091E-1,9.092964172E0,-2.342469215E0
1.592989212E1,9.969918728E-1,9.495651245E0,-1.589222431E0
1.593989212E1,1.335253000E0,9.567026138E0,-3.841490746E-1
1.594989295E1,1.434544802E0,9.570108414E0,-3.146023750E-1
1.595989295E1,1.668272257E0,9.631987572E0,3.122663498E-2
1.596989291E1,1.735000253E0,9.485872269E0,3.378458023E-1
1.597989288E1,1.279804826E0,9.324625969E0,9.075541496E-1
1.598989288E1,8.108926415E-1,9.098382950E0,9.161429405E-1
1.599989288E1,3.771072030E-1,9.052547455E0,6.449923515E-1
1.600989288E1,2.207301557E-3,9.091209412E0,5.233445168E-1
1.601989288E1,-7.689341903E-2,8.776210785E0,4.992313385E-1
1.602989288E1,1.068810001E-1,8.462672234E0,3.424053192E-1
1.603989288E1,2.539801598E-1,8.072302818E0,1.871728897E-2
1.604989288E1,2.632267177E-1,7.631621838E0,-4.196629524E-1
1.605989288E1,2.676173747E-1,6.849069595E0,-1.058877945E0
1.606989288E1,2.964299321E-1,6.646556377E0,-1.047029018E0
1.607989288E1,1.522434056E-1,6.159798145E0,-1.164636135E0
1.608989288E1,7.309855521E-2,5.757097721E0,-1.430474758E0
1.609989288E1,-4.288812727E-2,5.216576576E0,-2.005753994E0
1.610989288E1,-7.076820731E-2,5.133154869E0,-2.030051708E0
1.611989288E1,-7.358444482E-2,4.906249523E0,-2.331572533E0
1.612989288E1,1.341623068E-2,4.695740700E0,-2.598896503E0
1.613989288E1,1.206381768E-1,4.523306847E0,-2.817833900E0
1.614989288E1,1.034527868E-1,4.496572018E0,-2.789563656E0
1.615989288E1,4.343946278E-2,4.421151638E0,-2.769816875E0
1.616989285E1,-1.338951290E-1,4.378166199E0,-2.695968151E0
1.617989288E1,-1.108531058E-1,4.383905888E0,-2.842697144E0
1.618989288E1,7.244533300E-2,4.263661385E0,-3.104665518E0
1.619989288E1,4.290806055E-1,4.111556530E0,-3.406130552E0
1.620989288E1,9.216402769E-1,3.935781002E0,-3.444278955E0
1.621989288E1,1.115149856E0,3.698071003E0,-3.228974819E0
1.622989285E1,1.130498409E0,3.552262783E0,-3.170400143E0
1.623989284E1,1.071337461E0,3.498260498E0,-3.163033962E0
1.624989201E1,7.346317768E-1,3.389600754E0,-3.046097279E0
1.625989201E1,1.965571642E-1,3.294420719E0,-2.887848616E0
1.626989201E1,1.489816308E-1,3.243915081E0,-2.879740477E0
1.627989201E1,-1.199748516E-1,3.127542019E0,-2.774431944E0
1.628989201E1,2.019667625E-2,3.063857555E0,-2.417242527E0
1.629989201E1,6.545195580E-1,2.943772316E0,-2.206057549E0
1.630989204E1,7.618576884E-1,2.869060516E0,-2.189757824E0
1.631989204E1,7.524194121E-1,2.621127129E0,-2.630964518E0
1.632989204E1,5.207379460E-1,2.361762524E0,-3.358451843E0
1.633989204E1,-9.763824940E-2,1.982859612E0,-4.034434319E0
1.634989204E1,-1.705571711E-1,1.886558056E0,-4.003726959E0
1.635989204E1,-3.335689604E-1,1.592353344E0,-3.897629499E0
1.636989204E1,-6.340985298E-1,1.179499626E0,-3.903174162E0
1.637989204E1,-7.996032834E-1,8.078026772E-1,-3.793745756E0
1.638989204E1,-7.230113745E-1,4.861383438E-1,-3.522612095E0
1.639989204E1,-4.240745902E-1,2.520895004E-1,-3.237173319E0
1.640989204E1,-2.322483659E-1,-1.055097580E-2,-3.254153490E0
1.641989204E1,-2.962971926E-1,-3.601384163E-1,-3.518165827E0
1.642989208E1,-2.442986071E-1,-4.999151230E-1,-3.763292313E0
1.643989208E1,-2.153976560E-1,-6.108913422E-1,-4.060171127E0
1.644989208E1,-2.648601830E-1,-7.400407791E-1,-4.319097519E0
1.645989208E1,-4.129180908E-1,-9.855246544E-1,-4.678843975E0
1.646989211E1,-4.489059448E-1,-1.049534798E0,-4.729022026E0
1.647989208E1,-3.112535179E-1,-1.211102009E0,-4.763392448E0
1.648989208E1,-1.525385976E-1,-1.455022335E0,-4.232841969E0
1.649989208E1,-7.882571220E-2,-1.828766823E0,-3.561917543E0
1.650989211E1,-4.011076689E-2,-1.884806156E0,-3.503343344E0
1.651989211E1,2.982801199E-2,-1.972712994E0,-3.588788033E0
1.652989211E1,1.317903996E-1,-2.136453152E0,-3.694758415E0
1.653989211E1,-6.708878279E-2,-2.444969177E0,-4.020916462E0
1.654989248E1,-8.777678013E-2,-2.505239964E0,-4.055424690E0
1.655989248E1,-1.012204885E-1,-2.778719902E0,-4.115192413E0
1.656989248E1,-1.364836693E-1,-3.080529213E0,-3.971195221E0
1.657989248E1,-1.210195422E-1,-3.419888973E0,-4.014104366E0
1.658989248E1,-5.000340939E-2,-3.601437092E0,-4.005193710E0
1.659989248E1,7.154434919E-2,-3.738000870E0,-4.090737343E0
1.660989244E1,8.460885286E-2,-3.875563622E0,-4.149059772E0
1.661989244E1,8.704662323E-4,-4.035508633E0,-3.975532770E0
1.662989244E1,-2.209474146E-1,-4.133456230E0,-3.834660769E0
1.663989244E1,-2.596159577E-1,-4.093830109E0,-3.793736219E0
1.664989244E1,-3.894231021E-1,-4.063819885E0,-3.991384506E0
1.665989244E1,-6.803224087E-1,-3.996258259E0,-4.694234371E0
1.666989247E1,-7.292828560E-1,-3.988800049E0,-4.857015610E0
1.667989251E1,-5.982993245E-1,-3.714418411E0,-5.224225998E0
1.668989251E1,-5.942074656E-1,-3.462263584E0,-5.556390762E0
1.669989251E1,-5.582579970E-1,-2.778966427E0,-6.180546284E0
1.670989251E1,-5.144736767E-1,-2.687990665E0,-6.208911419E0
1.671989251E1,-2.936577797E-1,-2.333192825E0,-6.235991001E0
1.672989247E1,-8.629941940E-2,-2.001570225E0,-6.159646034E0
1.673989247E1,7.596194744E-2,-1.588181019E0,-5.619995594E0
1.674989251E1,7.221838832E-2,-1.531310558E0,-5.529089928E0
1.675989251E1,7.085940242E-2,-1.371773243E0,-5.136543274E0
1.676989247E1,1.517209709E-1,-1.313854694E0,-4.888409615E0
1.677989247E1,-7.991597056E-2,-1.303701401E0,-4.870595932E0
1.678989247E1,-2.211022824E-1,-1.353655338E0,-5.005653381E0
1.679989247E1,-3.318703473E-1,-1.430233002E0,-5.238037586E0
1.680989244E1,-2.271409631E-1,-1.540364742E0,-5.405158043E0
1.681989244E1,-1.735198498E-2,-1.845827103E0,-5.133060932E0
1.682989244E1,4.430532455E-3,-2.032197952E0,-4.842163086E0
1.683989244E1,2.150177956E-2,-2.244459629E0,-4.443474293E0
1.684989207E1,1.027525067E-1,-2.398289204E0,-4.361695766E0
1.685989207E1,1.198028922E-1,-2.754000664E0,-4.466656208E0
1.686989210E1,1.069515646E-1,-2.821401119E0,-4.582617283E0
1.687989210E1,-6.033113599E-2,-2.988337517E0,-4.846199989E0
1.688989210E1,-1.601375192E-1,-3.213708401E0,-5.164813995E0
1.689989210E1,-2.854236662E-1,-3.451077461E0,-5.262344837E0
1.690989210E1,-2.557290494E-1,-3.483499050E0,-5.205944061E0
1.691989210E1,-2.544637322E-1,-3.563719273E0,-5.102610111E0
1.692989214E1,-3.212814331E-1,-3.601047516E0,-5.222781658E0
1.693989214E1,-3.611313701E-1,-3.391738415E0,-5.352267742E0
1.694989217E1,-4.033896625E-1,-3.340257168E0,-5.368312359E0
1.695989217E1,-3.363979161E-1,-3.186304092E0,-5.158239841E0
1.696989214E1,-3.395955265E-1,-3.001280785E0,-4.648184299E0
1.697989210E1,-2.693183422E-1,-2.658778667E0,-3.966300011E0
1.698989210E1,-2.698635459E-1,-2.414195538E0,-3.698650599E0
1.699989210E1,-2.749212384E-1,-2.109407902E0,-3.530367374E0
1.700989210E1,-1.724256426E-1,-1.860594273E0,-3.457197189E0
1.701989210E1,-8.197635412E-3,-1.653663158E0,-3.543544769E0
1.702989210E1,2.830405235E-1,-1.498531342E0,-3.595170975E0
1.703989210E1,5.413718224E-1,-1.325704098E0,-3.540577650E0
1.704989207E1,6.854144931E-1,-1.070457935E0,-3.416096210E0
1.705989207E1,5.361100435E-1,-4.155721664E-1,-3.354341984E0
1.706989207E1,5.459802747E-1,-3.747234344E-1,-3.409338951E0
1.707989207E1,1.835780144E-1,-1.145119667E-1,-3.703671217E0
1.708989207E1,-5.203866959E-2,2.309856415E-1,-4.093772888E0
1.709989207E1,-1.125584692E-1,5.245113373E-1,-3.884865999E0
1.710989167E1,-6.598025560E-2,5.815362930E-1,-3.781169176E0
1.711989167E1,1.840718985E-1,7.582683563E-1,-3.105087280E0
1.712989167E1,3.252031505E-1,8.500380516E-1,-2.796122074E0
1.713989167E1,4.363523424E-1,8.874149323E-1,-3.236222267E0
1.714989167E1,4.379613996E-1,9.163165092E-1,-3.271251202E0
1.715989167E1,3.800002038E-1,1.071640015E0,-3.824741364E0
1.716989163E1,1.503504217E-1,1.137529850E0,-3.982185841E0
1.717989167E1,-9.880231321E-2,1.382413864E0,-4.017214298E0
1.718989167E1,-2.494537830E-1,1.548913479E0,-4.034000874E0
1.719989167E1,-4.254356623E-1,1.761524200E0,-3.876730442E0
1.720989167E1,-5.380560756E-1,1.991008759E0,-3.360265493E0
1.721989167E1,-3.775357008E-1,2.118669987E0,-2.774968863E0
1.722989163E1,-3.010536134E-1,2.213804722E0,-2.671068668E0
1.723989163E1,-2.134207785E-1,2.189197063E0,-2.607050896E0
1.724989160E1,-1.268627346E-1,2.246501923E0,-2.540586948E0
1.725989160E1,1.187548190E-1,2.414184093E0,-2.720420837E0
1.726989160E1,1.665593684E-1,2.531327248E0,-2.832690239E0
1.727989160E1,3.718978167E-1,2.806301594E0,-3.006805182E0
1.728989160E1,3.923145533E-1,3.091691494E0,-3.033150434E0
1.729989160E1,2.495715618E-1,3.543918610E0,-3.278852463E0
1.730989163E1,2.230077982E-1,3.711134434E0,-3.368620872E0
1.731989163E1,2.081368566E-1,4.133341789E0,-3.133749723E0
1.732989163E1,1.928381622E-2,4.298192978E0,-2.566993713E0
1.733989163E1,1.599938869E-1,4.651646614E0,-8.232884407E-1
1.734989163E1,1.772809625E-1,4.700678349E0,-8.720302582E-1
1.735989163E1,2.504714429E-1,4.789586544E0,-2.489070892E-1
1.736989163E1,4.197312891E-1,4.907608032E0,-9.027814865E-2
1.737989163E1,4.104302526E-1,4.952231884E0,-3.107447624E-1
1.738989163E1,3.500260413E-1,5.073500156E0,-6.536087990E-1
1.739989163E1,4.060704112E-1,5.082823277E0,-1.109972000E0
1.740989203E1,3.594628572E-1,5.082314491E0,-1.932785511E0
1.741989203E1,3.268636167E-1,5.082345963E0,-2.840617180E0
1.742989206E1,3.460635543E-1,5.171216965E0,-3.262518406E0
1.743989207E1,3.004255295E-1,5.249846458E0,-3.652548790E0
1.744989206E1,1.962296963E-1,5.375456810E0,-3.457283258E0
1.745989207E1,1.062764600E-1,5.432682991E0,-2.336174011E0
1.746989210E1,1.965297163E-1,5.464585781E0,-2.043777466E0
1.747989206E1,3.569383025E-1,5.571685314E0,-1.299851418E0
1.748989206E1,4.529908895E-1,5.680808067E0,-8.355712891E-1
1.749989206E1,8.658258319E-1,6.006118298E0,-1.013819218E0
1.750989210E1,9.166216254E-1,6.081932545E0,-1.069792747E0
1.751989210E1,9.607805610E-1,6.356904507E0,-1.301333427E0
1.752989210E1,9.690560699E-1,6.600344181E0,-1.508810043E0
1.753989210E1,8.386753798E-1,7.497740746E0,-1.879674911E0
1.754989210E1,7.440984249E-1,7.709112644E0,-1.909412861E0
1.755989210E1,5.696737170E-1,8.168005943E0,-1.841544151E0
1.756989210E1,4.568257928E-1,8.560583115E0,-1.333855152E0
1.757989210E1,6.515927315E-1,8.841663361E0,-6.184067726E-1
1.758989210E1,9.719114304E-1,9.043369293E0,8.347606659E-2
1.759989210E1,1.244867921E0,9.055210114E0,7.121253014E-1
1.760989206E1,1.325805783E0,9.091160774E0,1.117844105E0
1.761989206E1,1.350034356E0,9.209939957E0,1.026022434E0
1.762989206E1,1.317471027E0,9.219934464E0,7.405676842E-1
1.763989206E1,1.216739058E0,9.044157982E0,8.711385727E-2
1.764989206E1,1.123754144E0,8.866062164E0,-2.963604927E-1
1.765989206E1,7.722367048E-1,8.383028030E0,-4.469127655E-1
1.766989210E1,6.294150949E-1,8.274844170E0,-4.575619698E-1
1.767989213E1,3.903266191E-1,7.799298763E0,-5.679645538E-1
1.768989213E1,2.969856262E-1,7.359270573E0,-6.080875397E-1
1.769989213E1,2.365551293E-1,6.532827854E0,-7.356243134E-1
1.770989213E1,2.797556520E-1,6.403854847E0,-8.014593124E-1
1.771989213E1,4.403288364E-1,5.999017239E0,-1.146662235E0
1.772989210E1,5.205097198E-1,5.684659958E0,-1.565286160E0
1.773989210E1,4.142899811E-1,5.339182854E0,-2.625543594E0
1.774989210E1,4.066131711E-1,5.302030563E0,-2.588041306E0
1.775989210E1,3.729113638E-1,5.245221615E0,-2.868101120E0
1.776989206E1,2.897761464E-1,5.065851688E0,-3.013401031E0
1.777989206E1,3.498134017E-1,4.930546761E0,-2.853199482E0
1.778989206E1,3.001069725E-1,4.832112312E0,-2.409192085E0
1.779989206E1,2.774498761E-1,4.669762611E0,-2.035411835E0
1.780989203E1,3.779675066E-1,4.530910015E0,-1.849860668E0
1.781989203E1,4.900668263E-1,4.267354965E0,-1.750248432E0
1.782989203E1,5.225653648E-1,4.048233032E0,-1.869670391E0
1.783989203E1,5.082299709E-1,3.854424000E0,-2.063908577E0
1.784989203E1,4.402462542E-1,3.694137096E0,-2.267345905E0
1.785989203E1,3.177557290E-1,3.515359402E0,-2.815923691E0
1.786989206E1,2.812379003E-1,3.437974930E0,-2.905287981E0
1.787989206E1,2.588270009E-1,3.319296837E0,-3.120640755E0
1.788989206E1,2.790327966E-1,3.222208023E0,-3.129870415E0
1.789989206E1,1.569612324E-1,2.878324986E0,-3.081134319E0
1.790989206E1,1.308411360E-1,2.792312622E0,-2.983336449E0
1.791989206E1,1.094064415E-1,2.571419239E0,-2.697443724E0
1.792989209E1,1.298141181E-1,2.290826797E0,-2.559281111E0
1.793989209E1,-6.150516868E-2,1.676111221E0,-2.993151665E0
1.794989253E1,-5.700346828E-2,1.567249775E0,-3.035950899E0
1.795989253E1,-1.101278812E-1,1.177809715E0,-3.438399076E0
1.796989249E1,-1.896989942E-1,7.202258110E-1,-3.934349298E0
1.797989246E1,-2.475502789E-1,3.638062477E-1,-4.417505264E0
1.798989246E1,-2.971022427E-1,5.799102783E-2,-4.528969765E0
1.799989246E1,-4.159706235E-1,-3.491740227E-1,-4.430758953E0
1.800989246E1,-3.326655924E-1,-5.014109612E-1,-4.320156097E0
1.801989246E1,-2.058507949E-1,-7.464823723E-1,-4.031439304E0
1.802989246E1,-1.850192994E-1,-1.013029575E0,-3.758102894E0
1.803989246E1,1.758064926E-1,-1.172046185E0,-3.405575275E0
1.804989246E1,4.095565081E-1,-1.405467510E0,-3.236387730E0
1.805989246E1,4.642778933E-1,-1.796448708E0,-3.794075489E0
1.806989246E1,3.913752735E-1,-1.881002426E0,-3.912061453E0
1.807989246E1,1.529975832E-1,-2.089383125E0,-4.477296352E0
1.808989246E1,-4.998570681E-2,-2.359645367E0,-5.119216919E0
1.809989246E1,-2.707705796E-1,-2.548792839E0,-6.036758423E0
1.810989246E1,-3.251020312E-1,-2.600107670E0,-6.140567780E0
1.811989246E1,-5.107458830E-1,-2.758451939E0,-6.233091354E0
1.812989246E1,-6.289492249E-1,-2.821150780E0,-6.051155090E0
1.813989246E1,-2.642828226E-1,-2.977264404E0,-5.058777332E0
1.814989246E1,-2.683288455E-1,-2.980921745E0,-5.052836895E0
1.815989246E1,6.678074598E-2,-3.201739788E0,-3.807926655E0
1.816989242E1,2.397855222E-1,-3.368224144E0,-3.006597996E0
1.817989246E1,3.971967697E-1,-3.431731701E0,-2.553196192E0
1.818989246E1,4.123498201E-1,-3.410753250E0,-2.698072195E0
1.819989246E1,3.073201478E-1,-3.460566998E0,-3.186633348E0
1.820989246E1,1.589368880E-1,-3.528359413E0,-3.923094749E0
1.821989246E1,-9.123566747E-2,-3.624038219E0,-4.826525688E0
1.822989242E1,-3.860470355E-1,-3.661132336E0,-5.247151375E0
1.823989242E1,-5.515127778E-1,-3.608013153E0,-5.548523903E0
1.824989199E1,-4.757945240E-1,-3.600919724E0,-5.454675674E0
1.825989199E1,-2.600203156E-1,-3.473356247E0,-5.074114323E0
1.826989199E1,-2.007783204E-1,-3.410286903E0,-5.001634121E0
1.827989199E1,-5.856207013E-2,-3.195073605E0,-5.026468754E0
1.828989199E1,5.286225677E-2,-2.945333004E0,-5.234435081E0
1.829989199E1,1.781025529E-2,-2.387663364E0,-5.559443474E0
1.830989202E1,-1.636967063E-2,-2.313615322E0,-5.546033859E0
1.831989202E1,-1.096900702E-1,-1.999258518E0,-5.612442493E0
1.832989202E1,-2.022989392E-1,-1.755246639E0,-5.716715336E0
1.833989202E1,-1.063138843E-1,-1.557018757E0,-5.675598621E0
1.834989202E1,-8.366468549E-2,-1.538005352E0,-5.612268925E0
1.835989202E1,2.861407399E-2,-1.568363190E0,-5.218924999E0
1.836989202E1,7.159662247E-2,-1.777524471E0,-4.840111732E0
1.837989202E1,4.557371140E-3,-2.010396481E0,-4.139814377E0
1.838989202E1,-1.443256438E-1,-2.102835655E0,-3.798555851E0
1.839989202E1,-3.167234659E-1,-2.208496094E0,-3.815934658E0
1.840989202E1,-2.340463698E-1,-2.376348019E0,-3.765917540E0
1.841989202E1,-2.267116308E-1,-2.534214973E0,-3.711312294E0
1.842989206E1,-1.991351843E-1,-2.665941715E0,-3.878818274E0
1.843989206E1,-1.874215603E-1,-2.779554844E0,-4.278981686E0
1.844989206E1,-1.803108454E-1,-2.829889297E0,-4.877737999E0
1.845989206E1,-5.793064833E-2,-2.773417473E0,-5.496293545E0
1.846989209E1,-3.025618196E-2,-2.729408264E0,-5.502470493E0
1.847989205E1,1.038868129E-1,-2.635307789E0,-5.267039299E0
1.848989205E1,-3.104233742E-2,-2.615201473E0,-4.948437214E0
1.849989205E1,-1.030662656E-1,-2.469058990E0,-4.434486866E0
1.850989209E1,-7.324686646E-2,-2.413904190E0,-4.313763142E0
1.851989209E1,-5.419850349E-4,-2.299404621E0,-3.989096642E0
1.852989209E1,3.500014544E-2,-2.172445297E0,-3.917919636E0
1.853989209E1,2.071234286E-1,-1.573291779E0,-4.661792278E0
1.854989209E1,2.133899331E-1,-1.539358139E0,-4.711405277E0
1.855989209E1,2.177121639E-1,-1.506096840E0,-4.759267330E0
1.856989209E1,2.219445407E-1,-1.470700741E0,-4.809519768E0
1.857989209E1,3.530425727E-1,-1.297487259E0,-4.311392784E0
1.858989209E1,4.623900056E-1,-1.147335529E0,-3.948763371E0
1.859989209E1,5.391619802E-1,-1.039277554E0,-3.754218817E0
1.860989205E1,5.999307632E-1,-9.062585831E-1,-3.851462841E0
1.861989205E1,5.879255533E-1,-6.995921135E-1,-4.025505066E0
1.862989205E1,5.466241837E-1,-5.268597603E-1,-4.142637730E0
1.863989205E1,3.397955894E-1,-2.158684731E-1,-4.367990494E0
1.864989205E1,2.210366726E-1,1.351838112E-1,-4.739926338E0
1.865989205E1,-1.353591681E-3,6.164536476E-1,-4.949261665E0
1.866989209E1,-8.735403419E-2,7.826719284E-1,-4.946425438E0
1.867989212E1,-2.966355085E-1,1.088124752E0,-4.589809895E0
1.868989212E1,-3.566397429E-1,1.407767296E0,-3.888723373E0
1.869989212E1,-2.235655934E-1,1.691564083E0,-2.756985903E0
1.870989212E1,-1.335940957E-1,1.810750484E0,-2.547290325E0
1.871989212E1,1.148892343E-1,1.980927944E0,-1.748545170E0
1.872989208E1,1.655241698E-1,2.115047455E0,-1.273777485E0
1.873989208E1,1.825160682E-1,2.424478054E0,-1.181325912E0
1.874989209E1,1.942646801E-1,2.473567963E0,-1.298618317E0
1.875989212E1,2.832295001E-1,2.577598095E0,-1.708397388E0
1.876989208E1,4.320614934E-1,2.623596191E0,-2.095133305E0
1.877989208E1,3.817927241E-1,2.786756992E0,-2.215680599E0
1.878989208E1,3.170519769E-1,2.840321541E0,-2.434984684E0
1.879989208E1,2.186303288E-1,2.942677021E0,-2.777128935E0
1.880989205E1,2.806969285E-1,3.045317650E0,-2.954344511E0
1.881989205E1,3.674509227E-1,2.999992847E0,-2.907241106E0
1.882989205E1,6.099509001E-1,2.900730610E0,-2.729890347E0
1.883989205E1,8.980703950E-1,2.808197021E0,-2.434917450E0
1.884989205E1,1.155705214E0,2.749870300E0,-2.403776169E0
1.885989205E1,1.484849691E0,2.828352451E0,-2.805879116E0
1.886989208E1,1.520747662E0,2.892575264E0,-2.939491510E0
1.887985875E1,1.431010485E0,3.018033981E0,-3.315979242E0
1.888982542E1,1.106461883E0,3.200098515E0,-3.772922039E0
1.889979212E1,7.552680373E-1,3.547752380E0,-4.067442894E0
1.890975882E1,6.487088203E-1,3.630868435E0,-3.978030443E0
1.891972548E1,1.920395643E-1,3.866010666E0,-3.801763296E0
1.892969215E1,-1.364412904E-1,4.093577862E0,-3.712160110E0
1.893965881E1,-8.097089827E-2,4.309875488E0,-3.082664251E0
1.894962551E1,-2.730534971E-2,4.342927933E0,-2.959852934E0
1.895959218E1,2.317914218E-1,4.458758354E0,-2.498504639E0
1.896955881E1,3.338169456E-1,4.560036659E0,-2.103725910E0
1.897952544E1,5.634084940E-1,4.710268974E0,-1.699680328E0
1.898949211E1,6.888070703E-1,4.907908916E0,-1.397964478E0
1.899945878E1,6.778282523E-1,4.921494961E0,-1.412166595E0
1.900942544E1,9.729669690E-1,5.288858891E0,-1.454174519E0
1.901939211E1,1.061338425E0,5.283586025E0,-1.647605896E0
1.902935878E1,9.668595791E-1,5.374482632E0,-1.719151497E0
1.903932544E1,6.814653873E-1,5.602663040E0,-2.143567085E0
1.904929211E1,5.997374058E-1,5.845811367E0,-2.750030518E0
1.905925874E1,5.610814095E-1,6.050225735E0,-3.164443731E0
1.906922541E1,5.962070227E-1,6.081623077E0,-3.104344130E0
1.907919207E1,6.555145383E-1,6.353802204E0,-2.713143349E0
1.908915874E1,7.516761422E-1,6.703616142E0,-2.122179508E0
1.909912540E1,1.010927439E0,7.478881836E0,-1.377204895E0
1.910909210E1,1.022057772E0,7.691965580E0,-1.238543510E0
1.911905877E1,8.049740791E-1,8.212669373E0,-8.954930305E-1
1.912902544E1,7.010798454E-1,8.645112038E0,-6.269502640E-1
1.913899210E1,5.605605841E-1,9.177238464E0,-4.029211998E-1
1.914895877E1,5.708205700E-1,9.185570717E0,-4.115595818E-1
1.915892543E1,5.114737749E-1,9.336660385E0,-1.941924095E-1
1.916889207E1,5.868276954E-1,9.368382454E0,1.186332703E-1
1.917889207E1,4.920902848E-1,9.215279579E0,2.524104118E-1
1.918889207E1,5.304036736E-1,9.112222672E0,1.758418083E-1
1.919889203E1,5.821626186E-1,8.828125000E0,6.496381760E-2
1.920889200E1,6.605822444E-1,8.473042488E0,-5.142927170E-2
1.921889200E1,8.818256855E-1,8.092219353E0,-2.640876770E-1
1.922889200E1,8.743788600E-1,7.857452869E0,-5.484428406E-1
1.923889200E1,1.026312113E0,7.579047203E0,-8.203716278E-1
1.924889197E1,1.141927123E0,7.332793713E0,-1.047290802E0
1.925889196E1,1.318036795E0,6.918043613E0,-1.701584339E0
1.926889196E1,1.325362563E0,6.870733738E0,-1.796336174E0
1.927889196E1,1.359136701E0,6.724878788E0,-2.086876869E0
1.928889196E1,1.242285609E0,6.452809811E0,-2.348612309E0
1.929889197E1,1.068794131E0,6.089024544E0,-2.783952713E0
1.930889200E1,1.006676435E0,6.007174492E0,-2.782541990E0
1.931889200E1,8.517588377E-1,5.689106464E0,-2.616435528E0
1.932889200E1,6.829881072E-1,5.290881634E0,-2.360372066E0
1.933889200E1,5.624310374E-1,4.694592476E0,-2.001736641E0
1.934889200E1,5.517888069E-1,4.557300091E0,-1.953179836E0
1.935889200E1,4.954263270E-1,4.145677567E0,-1.995953083E0
1.936889200E1,3.257543445E-1,3.809415340E0,-2.235504627E0
1.937889200E1,1.407274604E-1,3.481678963E0,-2.540352106E0
1.938889200E1,-1.761004329E-2,3.235092163E0,-2.753420830E0
1.939889203E1,-2.163965851E-1,3.070013046E0,-2.970901728E0
1.940889200E1,-3.068045974E-1,2.914778709E0,-3.063691854E0
1.941889200E1,-2.862657905E-1,2.712363720E0,-3.195092201E0
1.942889200E1,-1.754200011E-1,2.549331188E0,-3.111767769E0
1.943889200E1,-4.264408350E-2,2.306526661E0,-3.017969608E0
1.944889200E1,1.320261061E-1,2.122214317E0,-3.018335342E0
1.945889200E1,4.033733010E-1,1.801336288E0,-3.046764374E0
1.946889200E1,3.820487857E-1,1.769661903E0,-3.004563332E0
1.947889200E1,4.730853140E-1,1.487130165E0,-3.138991594E0
1.948889200E1,4.671597183E-1,1.306423664E0,-3.314546585E0
1.949889200E1,3.940345645E-1,1.103393555E0,-3.672980070E0
1.950889203E1,3.965289891E-1,1.028823376E0,-3.680233955E0
1.951889203E1,3.921360373E-1,8.412628174E-1,-3.765299320E0
1.952889203E1,3.224364519E-1,4.987907410E-1,-3.527034760E0
1.953889203E1,2.319755256E-1,5.704021454E-2,-3.287549973E0
1.954889206E1,1.911905110E-1,-2.691278458E-1,-2.764720917E0
1.955889206E1,1.187998354E-1,-6.997776031E-1,-2.319957495E0
1.956889206E1,1.906141639E-2,-1.091803551E0,-1.862967253E0
1.957889206E1,1.023011506E-1,-1.419002056E0,-1.549834728E0
1.958889206E1,1.360277534E-1,-1.562496662E0,-1.464464784E0
1.959889206E1,1.411269903E-1,-1.726317406E0,-1.547730446E0
1.960889203E1,1.536679268E-1,-2.049506187E0,-1.732384920E0
1.961889203E1,9.344914556E-2,-2.516783714E0,-1.611721516E0
1.962889203E1,-5.209976435E-2,-2.884166241E0,-1.304958582E0
1.963889203E1,-2.817296386E-1,-3.370017052E0,-1.095261812E0
1.964889206E1,-4.195145667E-1,-3.889030933E0,-1.101311088E0
1.965889206E1,-3.921838105E-1,-4.542023659E0,-1.094470382E0
1.966889210E1,-3.985661864E-1,-4.735474586E0,-1.096502900E0
1.967889210E1,-3.465507627E-1,-5.218396187E0,-1.310143948E0
1.968889210E1,-3.887655139E-1,-5.540984631E0,-1.673252463E0
1.969889206E1,-4.310224950E-1,-6.000013828E0,-2.176663160E0
1.970889206E1,-4.208734632E-1,-6.068348408E0,-2.175712109E0
1.971889206E1,-4.084760547E-1,-6.236408710E0,-2.201314211E0
1.972889206E1,-3.626898527E-1,-6.257701874E0,-2.152539968E0
1.973889206E1,-3.385302424E-1,-6.166086197E0,-2.114215136E0
1.974889246E1,-3.171206713E-1,-6.167774677E0,-2.113644600E0
1.975889246E1,-2.293903679E-1,-6.061824322E0,-2.147330761E0
1.976889246E1,-2.699643672E-1,-5.934455872E0,-2.097750902E0
1.977889246E1,-1.684279144E-1,-5.754528999E0,-2.077187538E0
1.978889246E1,1.722514629E-2,-5.507808208E0,-2.115913868E0
1.979889246E1,1.417617500E-1,-5.285157681E0,-2.233555317E0
1.980889243E1,4.964157939E-2,-5.069459438E0,-2.367875576E0
1.981889243E1,-3.289541602E-2,-4.656598091E0,-2.583222628E0
1.982889243E1,1.575431228E-2,-4.360693455E0,-2.720050335E0
1.983889243E1,-6.225216389E-2,-3.991994381E0,-2.823064327E0
1.984889239E1,-1.255246103E-1,-3.715241432E0,-2.881134033E0
1.985889239E1,-2.223820686E-1,-3.218958855E0,-2.879224539E0
1.986889239E1,-2.097339034E-1,-3.111269951E0,-2.858500481E0
1.987889239E1,-1.793083847E-1,-2.891852379E0,-2.749156713E0
1.988889239E1,-1.736637950E-1,-2.831165314E0,-2.597578049E0
1.989889243E1,-3.933576345E-1,-2.921858788E0,-1.834960461E0
1.990889246E1,-4.098306596E-1,-2.979546547E0,-1.651082635E0
1.991889246E1,-3.056918085E-1,-3.169672012E0,-1.088383317E0
1.992889246E1,-2.273588181E-1,-3.339187622E0,-5.662631989E-1
1.993889246E1,-2.232420444E-1,-3.775858402E0,-1.109702587E-1
1.994889246E1,-2.934203744E-1,-3.828989029E0,-1.435538530E-1
1.995889246E1,-4.340935647E-1,-3.989881039E0,-2.260632515E-1
1.996889242E1,-3.750641644E-1,-4.067382336E0,-5.262789726E-1
1.997889242E1,-2.767190933E-1,-4.131225109E0,-1.166790485E0
1.998889242E1,-2.544054091E-1,-4.183721542E0,-1.556784034E0
1.999889242E1,-1.933083832E-1,-4.245895863E0,-1.979167223E0
2.000889243E1,-7.026961446E-2,-4.245321274E0,-2.118240118E0
2.001889242E1,7.911068201E-2,-4.104810238E0,-2.321442127E0
2.002889243E1,1.642563343E-1,-3.897425175E0,-2.347965956E0
2.003889242E1,-1.513183117E-2,-3.666414738E0,-2.505217552E0
2.004889202E1,-3.463121057E-1,-3.531314373E0,-2.601784229E0
2.005889203E1,-7.146332264E-1,-3.357342720E0,-2.023769855E0
2.006889202E1,-6.883791685E-1,-3.299585819E0,-1.796095490E0
2.007889203E1,-4.526420832E-1,-3.291451454E0,-1.106163383E0
2.008889202E1,-1.056120098E-1,-3.250872612E0,-8.039413691E-1
2.009889202E1,2.311170101E-1,-3.138900757E0,-1.058408380E0
2.010889206E1,2.619406283E-1,-3.086096764E0,-1.224953294E0
2.011889206E1,2.769983411E-1,-2.953606129E0,-1.604032040E0
2.012889206E1,8.921149373E-2,-2.726527691E0,-2.143263578E0
2.013889206E1,-2.247479558E-1,-2.200287342E0,-2.597379208E0
2.014889206E1,-2.914677262E-1,-2.115602970E0,-2.664133787E0
2.015889206E1,-2.551622391E-1,-1.971005440E0,-2.635716200E0
2.016889206E1,-8.082869649E-2,-1.886235237E0,-2.312532902E0
2.017889206E1,1.544001400E-1,-1.845666409E0,-1.932777286E0
2.018889206E1,3.570521176E-1,-1.841432095E0,-1.678440094E0
2.019889202E1,7.752252817E-1,-1.904064655E0,-1.396725655E0
2.020889199E1,8.127672076E-1,-1.919698238E0,-1.361060858E0
2.021889199E1,7.685727477E-1,-1.827003956E0,-1.881321192E0
2.022889199E1,6.407121420E-1,-1.792968273E0,-2.236596584E0
2.023889199E1,4.535628259E-1,-1.686225891E0,-2.607212543E0
2.024889196E1,3.122864068E-1,-1.368535519E0,-2.736703396E0
2.025889196E1,-3.852978349E-2,-6.517934799E-1,-2.417407751E0
2.026889196E1,-1.293374598E-1,-5.290880203E-1,-2.322974682E0
2.027889196E1,-1.541981995E-1,-3.073692322E-2,-1.775516272E0
2.028889196E1,-7.728812099E-2,4.936790466E-1,-1.105026484E0
2.029889196E1,2.731353939E-1,1.376379967E0,1.807422638E-1
2.030889199E1,3.666802049E-1,1.584317207E0,4.444301128E-1
2.031889199E1,5.357168317E-1,2.083602905E0,9.576778412E-1
2.032889199E1,4.181810021E-1,2.422919273E0,1.351226807E0
2.033889199E1,2.137070447E-1,2.815397263E0,2.053614616E0
2.034889242E1,2.053717524E-1,2.813891411E0,2.108233452E0
2.035889242E1,1.437276602E-1,2.851901054E0,2.458001137E0
2.036889242E1,-1.972805709E-2,2.667881012E0,2.677842140E0
