"Time (s)","Gyroscope x (rad/s)","Gyroscope y (rad/s)","Gyroscope z (rad/s)"
2.159566100E-2,-3.741549561E-3,-4.115704447E-2,2.771801129E-2
3.159566100E-2,-3.741549561E-3,-4.115704447E-2,2.771801129E-2
4.159566100E-2,-3.741549561E-3,-4.115704447E-2,2.771801129E-2
5.159566100E-2,-3.741549561E-3,-4.115704447E-2,2.771801129E-2
6.159566100E-2,-1.808924675E-1,-2.299144119E-1,6.742425263E-2
7.159566100E-2,-1.534035355E-1,-1.889864355E-1,6.742425263E-2
8.159566100E-2,-1.155298874E-1,-1.413389444E-1,5.887213722E-2
9.159566100E-2,-6.421720982E-2,-7.841982692E-2,4.970915988E-2
1.015956610E-1,1.756237587E-3,-2.771801129E-2,2.405281924E-2
1.115956610E-1,5.306891724E-2,8.323038928E-3,-9.926559869E-4
1.215956610E-1,6.589708477E-2,3.825543448E-2,-9.544769302E-3
1.315956610E-1,5.429064855E-2,4.925100878E-2,-8.933904581E-3
1.415956610E-1,3.352123126E-2,3.886630014E-2,-2.825251780E-3
1.515956610E-1,1.580613852E-2,2.237293869E-2,1.244637929E-2
1.615956610E-1,1.091921609E-2,-8.399396902E-4,3.138320148E-2
1.715956610E-1,2.130392566E-2,-1.855503209E-2,4.726569727E-2
1.815956610E-1,3.291036561E-2,-2.466368489E-2,7.292203605E-2
1.915956610E-1,5.001459271E-2,-2.832887508E-2,1.089630872E-1
2.015956610E-1,5.367978290E-2,-2.832887508E-2,1.254564524E-1
2.115956610E-1,4.329507425E-2,-3.565925732E-2,1.346194297E-1
2.215956610E-1,4.696026444E-2,-3.932445124E-2,1.456149966E-1
2.315956610E-1,6.467536092E-2,-3.077233583E-2,1.511127949E-1
2.415956610E-1,9.155342728E-2,-1.672243699E-2,1.529453844E-1
2.515956610E-1,1.318705380E-1,9.926559869E-4,1.559997052E-1
2.615956610E-1,1.856266707E-1,1.320996135E-2,1.645518243E-1
2.715956610E-1,2.204459906E-1,3.581197560E-2,1.614975035E-1
2.815956610E-1,2.406045496E-1,3.459024429E-2,1.486693323E-1
2.915956610E-1,2.448806018E-1,1.809688285E-2,1.511127949E-1
3.015956610E-1,2.448806018E-1,2.298380435E-2,1.767691374E-1
3.115956610E-1,2.503784001E-1,4.558581859E-2,2.067015320E-1
3.215956610E-1,2.772564590E-1,9.201157838E-2,1.853212416E-1
3.315956610E-1,2.674826086E-1,1.451568604E-1,1.566105783E-1
3.415956610E-1,2.112830132E-1,1.848630905E-1,1.541671157E-1
3.515956610E-1,1.135445759E-1,2.044107765E-1,1.511127949E-1
3.615956610E-1,-2.519819187E-3,1.891391575E-1,1.498910636E-1
3.715956610E-1,-1.155298874E-1,1.408807933E-1,1.517236531E-1
3.815956610E-1,-2.053270787E-1,8.895725012E-2,1.468367279E-1
3.915956610E-1,-2.279291004E-1,4.192062840E-2,1.486693323E-1
4.015956610E-1,-1.833359301E-1,8.933904581E-3,1.529453844E-1
4.115956610E-1,-1.118647009E-1,-4.505131394E-3,1.578323096E-1
4.215956610E-1,-5.627596006E-2,1.198823005E-2,1.529453844E-1
4.315956610E-1,-1.840231568E-2,2.664899640E-2,1.407280862E-1
4.415956610E-1,2.191479132E-2,5.291620269E-2,1.272890419E-1
4.515956610E-1,8.544477820E-2,5.169447139E-2,1.547779888E-1
4.615956610E-1,1.367574632E-1,3.764457256E-2,1.743256748E-1
4.715956610E-1,1.709659100E-1,2.603813075E-2,1.669952869E-1
4.815956610E-1,2.308306992E-1,5.879578181E-3,1.578323096E-1
4.915956610E-1,3.285691440E-1,-1.244637929E-2,1.523345262E-1
5.015956610E-1,4.183663428E-1,-2.283108793E-2,1.700496078E-1
5.115956610E-1,5.112178326E-1,-4.543310404E-2,2.250274867E-1
5.215956610E-1,5.539784431E-1,-6.620252132E-2,2.800053656E-1
5.315956610E-1,5.338198543E-1,-4.970915988E-2,3.117703497E-1
5.415956610E-1,4.818963110E-1,-1.061378326E-2,3.325397670E-1
5.515956610E-1,4.763985276E-1,6.696610153E-2,3.649156392E-1
5.615956610E-1,5.295438170E-1,1.506546438E-1,4.235586822E-1
5.715956610E-1,5.497023463E-1,1.897500157E-1,4.302782118E-1
5.815956610E-1,5.808565021E-1,1.805870384E-1,4.034001231E-1
5.915956610E-1,5.680283308E-1,1.414916664E-1,3.624721766E-1
6.015956610E-1,5.112178326E-1,1.769218445E-1,3.227659166E-1
6.115956610E-1,4.171445966E-1,3.265838325E-1,2.903900743E-1
6.215956610E-1,2.980258763E-1,4.811327457E-1,2.592359483E-1
6.315956610E-1,2.247220576E-1,5.208389759E-1,1.676061451E-1
6.415956610E-1,1.428661048E-1,5.532148480E-1,9.430231899E-2
6.515956610E-1,6.895141304E-2,5.611560941E-1,5.398521572E-2
6.615956610E-1,-1.534798928E-2,5.251150131E-1,1.305724494E-2
6.715956610E-1,-1.582904607E-1,4.200462103E-1,-7.063129544E-2
6.815956610E-1,-3.818671405E-1,3.058144152E-1,-1.408807933E-1
6.915956610E-1,-6.940192580E-1,2.318997234E-1,-1.408807933E-1
7.015956610E-1,-9.768499136E-1,3.031418845E-2,-7.735081017E-2
7.115956610E-1,-1.204702616E0,-1.578323096E-1,1.855503209E-2
7.215956610E-1,-1.394681692E0,-3.478114009E-1,1.211803928E-1
7.315956610E-1,-1.604819298E0,-5.194645524E-1,2.622902691E-1
7.415956610E-1,-1.854052424E0,-6.691265106E-1,4.156174362E-1
7.515956940E-1,-2.111226559E0,-8.346710205E-1,5.249623060E-1
7.615956940E-1,-2.297540426E0,-9.757808447E-1,5.304601192E-1
7.715956940E-1,-2.395278931E0,-8.420013785E-1,4.693735838E-1
7.815956940E-1,-2.348242283E0,-5.891031623E-1,3.942371607E-1
7.915956940E-1,-2.252336502E0,-3.294854462E-1,3.087160289E-1
8.015956940E-1,-2.173534870E0,-1.217912585E-1,2.372447848E-1
8.115956940E-1,-2.061746597E0,3.336851299E-2,1.786017269E-1
8.215956940E-1,-1.946903944E0,1.213331074E-1,1.010218412E-1
8.315956940E-1,-1.838780761E0,1.879174262E-1,-4.008803144E-2
8.415956940E-1,-1.734322786E0,2.526691258E-1,-1.769218445E-1
8.515956940E-1,-1.634751797E0,2.929862440E-1,-2.636647224E-1
8.615956940E-1,-1.551063180E0,2.728276849E-1,-3.155882657E-1
8.715956940E-1,-1.510746121E0,2.111303061E-1,-3.241403699E-1
8.815956940E-1,-1.427057624E0,6.757696718E-2,-2.545017302E-1
8.915956940E-1,-1.355586290E0,-3.871358559E-2,-1.775327176E-1
9.015956940E-1,-1.262123942E0,-9.796751291E-2,-1.140027270E-1
9.115956940E-1,-1.159498572E0,-1.052978933E-1,-9.873109311E-2
9.215956940E-1,-1.044655919E0,-9.308059514E-2,-1.195005104E-1
9.315956940E-1,-9.194285274E-1,-9.552405030E-2,-1.463785917E-1
9.415956940E-1,-8.253552914E-1,-1.199586615E-1,-1.433242559E-1
9.515956940E-1,-7.948120236E-1,-1.663844138E-1,-9.873109311E-2
9.615956940E-1,-7.764860988E-1,-2.176970989E-1,-1.687515154E-2
9.715956940E-1,-7.862599492E-1,-2.445751727E-1,6.009386852E-2
9.815956940E-1,-7.001278996E-1,-2.225840241E-1,1.016327068E-1
9.915956940E-1,-6.323218942E-1,-1.278999150E-1,1.083522215E-1
1.001595694E0,-6.262132525E-1,-3.993531689E-2,6.131559983E-2
1.011595694E0,-5.785657167E-1,2.664899640E-2,2.588541433E-2
1.021595694E0,-5.125923157E-1,7.712173741E-3,3.504839167E-2
1.031595694E0,-4.160755873E-1,-2.283108793E-2,6.925684959E-2
1.041595694E0,-3.012329340E-1,-4.970915988E-2,9.674578160E-2
1.051595660E0,-2.279291004E-1,-6.192646548E-2,1.120174155E-1
1.061595660E0,-2.120465934E-1,-5.032002553E-2,1.352302879E-1
1.071595660E0,-2.578614950E-1,-4.726569727E-2,1.957059503E-1
1.081595660E0,-3.604868650E-1,-8.697193861E-2,3.050508201E-1
1.091595660E0,-4.881576896E-1,-1.456149966E-1,4.638758004E-1
1.101595660E0,-6.396522522E-1,-2.067015320E-1,6.159812212E-1
1.111595660E0,-7.422776222E-1,-2.830596864E-1,7.234935164E-1
1.121595660E0,-8.369617462E-1,-2.934443951E-1,7.625889182E-1
1.131595660E0,-6.494261026E-1,-3.627012298E-2,6.355289221E-1
1.141595660E0,-4.069126248E-1,1.909717470E-1,4.840343595E-1
1.151595660E0,-1.344667077E-1,3.528510332E-1,2.842814028E-1
1.161595660E0,1.337031275E-1,4.377613068E-1,1.114065498E-1
1.171595660E0,3.236822188E-1,3.424663246E-1,8.399396902E-4
1.181595660E0,3.688862622E-1,1.885282844E-1,-1.565342210E-2
1.191595660E0,2.974150181E-1,-1.427897532E-2,1.977676153E-2
1.201595660E0,1.831832081E-1,-1.248455867E-1,2.222022414E-2
1.211595660E0,8.300131559E-2,-9.613491595E-2,-6.490443368E-3
1.221595660E0,-1.412625890E-2,5.268712528E-3,-2.725986205E-2
1.231595660E0,-8.804095536E-2,5.597052723E-2,-1.382082608E-2
1.241595660E0,-1.937206388E-1,4.657847341E-3,3.932445124E-2
1.251595660E0,-3.024546504E-1,-3.443752974E-2,4.787656292E-2
1.261595660E0,-3.403283060E-1,1.603521290E-3,5.726861767E-3
1.271595660E0,-3.433826268E-1,9.078984708E-2,-3.397937864E-2
1.281595660E0,-2.822960913E-1,1.750892550E-1,-6.452263892E-2
1.291595660E0,-1.796707362E-1,2.251801938E-1,-6.452263892E-2
1.301595660E0,-6.238461286E-2,2.123520374E-1,-1.626428775E-2
1.311595660E0,5.978843570E-2,1.335504204E-1,6.192646548E-2
1.321595660E0,1.624137908E-1,5.268712528E-3,1.541671157E-1
1.331595660E0,2.259437889E-1,-1.217912585E-1,2.439643145E-1
1.341595660E0,2.833651304E-1,-1.755474061E-1,2.940552533E-1
1.351595660E0,3.597232699E-1,-1.034653038E-1,2.690097690E-1
1.361595660E0,4.745659232E-1,3.092505224E-2,1.865429729E-1
1.371595660E0,5.637522340E-1,9.812022746E-2,8.575020730E-2
1.381595660E0,6.211736202E-1,4.925100878E-2,2.672535367E-3
1.391595693E0,6.999751925E-1,-6.070473418E-2,-2.909245715E-2
1.401595693E0,7.885506749E-1,-1.963168234E-1,-7.101308554E-3
1.411595693E0,8.985064030E-1,-3.062725663E-1,2.893974073E-2
1.421595693E0,9.980774522E-1,-3.612504303E-1,6.192646548E-2
1.431595693E0,1.150182843E0,-3.404810131E-1,5.887213722E-2
1.441595693E0,1.232649684E0,-3.136029541E-1,5.459608138E-2
1.451595693E0,1.293736219E0,-2.855031490E-1,3.443752974E-2
1.461595693E0,1.354211926E0,-2.604576647E-1,6.948592141E-3
1.474184922E0,1.400026798E0,-2.445751727E-1,-4.046982154E-3
1.484184922E0,1.428737402E0,-2.360230535E-1,1.000291854E-2
1.494184922E0,1.397583365E0,-2.671771944E-1,4.848742858E-2
1.504184922E0,1.302899241E0,-3.044399619E-1,9.857837856E-2
1.514184922E0,1.215545535E0,-3.160464168E-1,1.370628923E-1
1.524184922E0,1.147128582E0,-3.129920661E-1,1.694387496E-1
1.534184922E0,1.096426725E0,-2.769510448E-1,1.834886521E-1
1.544184922E0,1.089707255E0,-2.036471963E-1,1.779908538E-1
1.554184922E0,1.096426725E0,-1.388954818E-1,1.614975035E-1
1.564184922E0,1.085431218E0,-1.199586615E-1,1.511127949E-1
1.574184922E0,1.045114040E0,-1.278999150E-1,1.297325045E-1
1.584184922E0,1.004186153E0,-1.474476010E-1,1.016327068E-1
1.594184922E0,9.730319977E-1,-1.828777790E-1,7.170030475E-2
1.604184922E0,9.253844619E-1,-2.195297033E-1,5.887213722E-2
1.614184922E0,8.575784564E-1,-2.421317101E-1,6.742425263E-2
1.624184922E0,7.763333917E-1,-2.348013222E-1,7.536549866E-2
1.634184988E0,6.926448345E-1,-2.054798007E-1,7.841982692E-2
1.644184988E0,6.187301278E-1,-1.333976984E-1,8.391761035E-2
1.654184988E0,5.625305176E-1,-1.488984004E-2,9.552405030E-2
1.664184988E0,5.271003246E-1,1.237765700E-1,1.083522215E-1
1.674184988E0,5.234351754E-1,2.746602893E-1,1.089630872E-1
1.684184988E0,5.668066144E-1,3.937790096E-1,9.002626687E-2
1.694184954E0,6.144540906E-1,4.157701433E-1,6.131559983E-2
1.704184954E0,6.602689624E-1,2.997057736E-1,5.765040591E-2
1.714184954E0,6.993643641E-1,8.956811577E-2,6.925684959E-2
1.724184954E0,6.950882673E-1,-1.370628923E-1,8.269587904E-2
1.734184954E0,6.559929252E-1,-3.215442002E-1,9.613491595E-2
1.744184954E0,6.285039783E-1,-4.272238910E-1,9.430231899E-2
1.754184954E0,6.126214862E-1,-4.400520623E-1,8.697193861E-2
1.764184954E0,5.961281061E-1,-3.924045563E-1,7.719809562E-2
1.774184954E0,6.065128446E-1,-2.916117907E-1,6.070473418E-2
1.784184954E0,6.498842835E-1,-1.608866304E-1,2.955060638E-2
1.794184954E0,6.840927005E-1,-3.260493279E-2,-1.137736533E-2
1.804184954E0,7.470118403E-1,5.047274008E-2,-6.085744873E-2
1.814184954E0,8.252025843E-1,8.345946670E-2,-1.066723466E-1
1.824184954E0,8.960629702E-1,5.719225854E-2,-1.402699351E-1
1.834184954E0,9.351583123E-1,-4.505131394E-3,-1.524872333E-1
1.844184954E0,9.217193127E-1,-7.597636431E-2,-1.732566506E-1
1.854184954E0,8.814021945E-1,-1.566105783E-1,-1.757001132E-1
1.864184954E0,8.343655467E-1,-1.969276816E-1,-1.592067480E-1
1.874184954E0,8.166504502E-1,-1.859321147E-1,-1.274417639E-1
1.884184954E0,8.423067927E-1,-1.437824070E-1,-7.185302675E-2
1.894184954E0,8.814021945E-1,-8.575020730E-2,-2.176207490E-2
1.904184954E0,9.204975367E-1,-2.283108793E-2,1.794416644E-2
1.914184954E0,9.492082596E-1,4.558581859E-2,4.115704447E-2
1.924184954E0,9.479864836E-1,8.834638447E-2,5.215261877E-2
1.934184887E0,9.113345742E-1,1.048397496E-1,4.360050708E-2
1.944184887E0,8.337547183E-1,8.895725012E-2,1.977676153E-2
1.954184887E0,7.140251398E-1,7.124216110E-2,-7.712173741E-3
1.964184887E0,5.930737853E-1,7.673994452E-2,-3.336851299E-2
1.974184887E0,4.880049825E-1,9.873109311E-2,-4.069889709E-2
1.984184887E0,3.835470080E-1,1.036180183E-1,-2.237293869E-2
1.994184887E0,2.021200359E-1,1.262200326E-1,8.399396902E-4
2.004184887E0,9.644035250E-2,1.628719419E-1,1.122464892E-2
2.014184887E0,-4.963280167E-3,1.830305010E-1,2.588541433E-2
2.024184887E0,-1.210276783E-1,1.793653071E-1,3.016147204E-2
2.034184887E0,-2.279291004E-1,1.708131880E-1,2.405281924E-2
2.044184887E0,-3.116176426E-1,1.622610837E-1,6.948592141E-3
2.054184887E0,-3.763693571E-1,1.445459872E-1,-9.544769302E-3
2.064184887E0,-4.111886621E-1,1.280526221E-1,-4.130976275E-2
2.074184887E0,-4.105778039E-1,1.146135926E-1,-9.262244403E-2
2.084184887E0,-3.989713490E-1,1.109483987E-1,-1.482111812E-1
2.094184887E0,-3.635411859E-1,1.066723466E-1,-2.031890452E-1
2.104184887E0,-3.140611053E-1,1.078940704E-1,-2.422844321E-1
2.114184887E0,-3.042872548E-1,1.225548387E-1,-2.679407597E-1
2.124184887E0,-3.568216562E-1,1.463785917E-1,-2.709950805E-1
2.134184887E0,-4.398993254E-1,1.793653071E-1,-2.667190433E-1
2.144184887E0,-5.168683529E-1,2.160172164E-1,-2.703842223E-1
2.154184887E0,-5.767331719E-1,2.276236564E-1,-2.746602893E-1
2.164184887E0,-6.384305358E-1,1.866956949E-1,-2.813797891E-1
2.174184887E0,-6.921866536E-1,1.017854214E-1,-2.838232517E-1
2.184184887E0,-7.563275099E-1,1.626428775E-2,-2.935971022E-1
2.194184887E0,-8.455138803E-1,-4.298964143E-2,-3.082578778E-1
2.204184887E0,-9.664651752E-1,-9.918924421E-2,-3.253620863E-1
2.214184887E0,-1.082529545E0,-1.572214365E-1,-3.540727794E-1
2.224184887E0,-1.168050766E0,-1.969276816E-1,-3.785073757E-1
2.234184887E0,-1.207756996E0,-2.250274867E-1,-3.937790096E-1
2.244184887E0,-1.182100654E0,-2.219731659E-1,-3.778965175E-1
2.254184887E0,-1.116738081E0,-1.889864355E-1,-3.168099821E-1
2.264184887E0,-1.044045091E0,-1.327868253E-1,-2.373975068E-1
2.274184887E0,-9.762390256E-1,-4.360050708E-2,-1.750892550E-1
2.284184887E0,-9.212611318E-1,4.864014685E-2,-1.488220394E-1
2.294184887E0,-8.925504684E-1,9.934195876E-2,-1.530981064E-1
2.304184887E0,-8.827766180E-1,9.201157838E-2,-1.738675237E-1
2.314184887E0,-8.693376184E-1,4.192062840E-2,-2.056325078E-1
2.324184887E0,-8.577311635E-1,-1.427897532E-2,-2.257910669E-1
2.334184887E0,-8.583420515E-1,-5.703954399E-2,-2.117411643E-1
2.344184887E0,-8.668941259E-1,-5.093089119E-2,-1.824196279E-1
2.354184887E0,-8.412377834E-1,3.092505224E-2,-1.647045463E-1
2.364184887E0,-7.642687559E-1,1.830305010E-1,-1.506546438E-1
2.374184887E0,-6.769150496E-1,3.333033621E-1,-1.476003081E-1
2.384184887E0,-6.170502305E-1,4.444808364E-1,-1.537089646E-1
2.394184887E0,-5.791766047E-1,5.055673718E-1,-1.640936732E-1
2.404184887E0,-5.455790162E-1,4.762458205E-1,-1.793653071E-1
2.414184887E0,-4.869359732E-1,3.956116140E-1,-1.775327176E-1
2.424184887E0,-3.904192448E-1,3.131448030E-1,-1.695914567E-1
2.434184887E0,-2.743548453E-1,2.599995136E-1,-1.555415690E-1
2.444184887E0,-1.442405581E-1,2.019673288E-1,-1.243874356E-1
2.454184887E0,-3.306308016E-2,1.457677186E-1,-6.391177326E-2
2.464184887E0,3.901901841E-2,1.036180183E-1,-1.198823005E-2
2.474185120E0,4.573853686E-2,1.506546438E-1,3.260493279E-2
2.484185120E0,1.336267684E-2,2.502256632E-1,7.475463301E-2
2.494185120E0,-3.917173296E-2,3.687335253E-1,1.352302879E-1
2.504185120E0,-1.143081561E-1,4.432590902E-1,1.987602860E-1
2.514185120E0,-2.242639065E-1,4.316526651E-1,2.659554482E-1
2.524185120E0,-3.598759770E-1,3.614031374E-1,3.404810131E-1
2.534185120E0,-4.472297132E-1,3.033709526E-1,3.740786016E-1
2.544185120E0,-4.521166384E-1,2.899319232E-1,3.539200425E-1
2.554185120E0,-4.313472211E-1,3.155882657E-1,2.635119855E-1
2.564185120E0,-3.995822370E-1,3.442989290E-1,2.085341215E-1
2.574185120E0,-3.452152312E-1,3.369685411E-1,2.024254650E-1
2.584185120E0,-2.780200541E-1,2.746602893E-1,2.378556579E-1
2.594185120E0,-1.949423701E-1,1.793653071E-1,2.806162238E-1
2.604185120E0,-9.598220140E-2,1.219439730E-1,2.812270820E-1
2.614185120E0,3.588833380E-3,5.658139288E-2,2.519055605E-1
2.624185120E0,3.596469015E-2,-3.260493279E-2,2.060906589E-1
2.634185120E0,1.030835137E-2,-1.358411610E-1,1.382846236E-1
2.644185120E0,-5.994115397E-2,-1.926516294E-1,8.636107296E-2
2.654185120E0,-1.246928647E-1,-2.134210467E-1,6.009386852E-2
2.664185120E0,-1.509600729E-1,-1.602757722E-1,6.681338698E-2
2.674185120E0,-1.601230502E-1,-7.536549866E-2,7.047858089E-2
2.684185120E0,-1.888337135E-1,4.657847341E-3,5.215261877E-2
2.694185120E0,-2.303725630E-1,6.757696718E-2,2.893974073E-2
2.704185120E0,-2.914590836E-1,1.048397496E-1,3.283400787E-3
2.714185120E0,-3.739258945E-1,1.097266674E-1,-1.565342210E-2
2.724185120E0,-4.344015419E-1,1.213331074E-1,8.399396902E-4
2.734185120E0,-4.301255047E-1,1.677588671E-1,5.765040591E-2
2.744185120E0,-3.824779987E-1,2.349540442E-1,1.529453844E-1
2.754185120E0,-2.975677252E-1,3.052035570E-1,2.977204621E-1
2.764185120E0,-1.973858327E-1,3.522401750E-1,4.626540542E-1
2.774184886E0,-1.466840208E-1,3.491858542E-1,6.245333552E-1
2.784184886E0,-1.436296850E-1,2.642755806E-1,7.149413824E-1
2.794184886E0,-1.674534380E-1,1.512655020E-1,7.039458156E-1
2.804184886E0,-2.230421752E-1,3.092505224E-2,6.184247136E-1
2.814184886E0,-2.334268838E-1,-6.498079002E-2,4.565454125E-1
2.824184886E0,-1.527926624E-1,-9.369145334E-2,2.574033439E-1
2.834184886E0,2.130392566E-2,-1.016327068E-1,4.970915988E-2
2.844184886E0,2.418262810E-1,-1.352302879E-1,-1.133918613E-1
2.854184886E0,4.770093858E-1,-1.969276816E-1,-2.007455975E-1
2.864184886E0,7.036404014E-1,-2.683989108E-1,-2.410627007E-1
2.874184886E0,9.143888950E-1,-3.209333420E-1,-2.551125884E-1
2.884184886E0,1.094594121E0,-3.539200425E-1,-2.257910669E-1
2.894184886E0,1.231428027E0,-3.734677434E-1,-1.940260679E-1
2.904184886E0,1.295568824E0,-3.667482138E-1,-1.757001132E-1
2.914184886E0,1.287627578E0,-3.581961095E-1,-1.610393524E-1
2.924184886E0,1.230206251E0,-3.453679383E-1,-1.304960847E-1
2.934184886E0,1.164232850E0,-3.453679383E-1,-9.017898142E-2
2.944184886E0,1.107422352E0,-3.514765799E-1,-5.474879593E-2
2.954184886E0,1.070159554E0,-3.453679383E-1,-1.687515154E-2
2.964184886E0,1.067105174E0,-3.294854462E-1,2.038762718E-2
2.974184886E0,1.114752769E0,-2.873357534E-1,5.642867833E-2
2.984184886E0,1.170341492E0,-2.451860309E-1,1.065196246E-1
2.994184886E0,1.203328133E0,-2.262492180E-1,1.639409661E-1
3.004184886E0,1.194165230E0,-2.018146068E-1,2.012037337E-1
3.014184886E0,1.163621902E0,-1.645518243E-1,2.042580694E-1
3.024184886E0,1.102535367E0,-1.364520192E-1,1.798234582E-1
3.034184886E0,1.000520945E0,-1.278999150E-1,1.327868253E-1
3.044184886E0,8.948412538E-1,-1.486693323E-1,7.658722997E-2
3.054184886E0,8.380307555E-1,-1.908190250E-1,4.787656292E-2
3.064184886E0,8.307003975E-1,-2.299144119E-1,2.710714564E-2
3.074184886E0,8.875108361E-1,-2.470186353E-1,-2.725986205E-2
3.084184886E0,9.669232965E-1,-2.586250603E-1,-8.529205620E-2
3.094184886E0,1.012127399E0,-2.800053656E-1,-1.121701300E-1
3.104184886E0,9.699776769E-1,-3.636938930E-1,-9.873109311E-2
3.114184886E0,8.820130825E-1,-4.266130030E-1,-7.002042979E-2
3.124184886E0,7.659486532E-1,-4.773148298E-1,-4.619668424E-2
3.134184886E0,6.303365827E-1,-4.754822254E-1,-5.413793400E-2
3.144184886E0,5.429828167E-1,-3.954588771E-1,-8.956811577E-2
3.154184886E0,5.368741751E-1,-2.659554482E-1,-1.408807933E-1
3.164184886E0,5.753586888E-1,-1.456149966E-1,-1.995238662E-1
3.174184886E0,6.181192994E-1,-1.083522215E-1,-2.483930737E-1
3.184184886E0,6.627124548E-1,-1.663844138E-1,-2.569451928E-1
3.194184886E0,7.005860806E-1,-2.696206570E-1,-2.068542391E-1
3.204184886E0,7.396814823E-1,-3.441462219E-1,-1.433242559E-1
3.214184886E0,7.580074072E-1,-3.508657217E-1,-9.262244403E-2
3.224184886E0,7.366271019E-1,-2.928335369E-1,-5.535966158E-2
3.234184886E0,6.718754172E-1,-2.250274867E-1,-3.581197560E-2
3.244184886E0,5.949063897E-1,-1.682170182E-1,-1.748601720E-2
3.254184886E0,5.258786082E-1,-1.175151989E-1,2.222022414E-2
3.264184886E0,4.733442068E-1,-3.077233583E-2,6.131559983E-2
3.274184886E0,4.470770061E-1,4.619668424E-2,9.308059514E-2
3.284184886E0,4.452444017E-1,1.097266674E-1,1.089630872E-1
3.294184886E0,4.763985276E-1,1.463785917E-1,8.819366992E-2
3.304184886E0,4.788419902E-1,1.274417639E-1,5.215261877E-2
3.314184886E0,4.556291103E-1,8.407033235E-2,3.810271993E-2
3.324184886E0,4.654029608E-1,1.137736533E-2,4.176791012E-2
3.334184886E0,4.892266989E-1,-2.771801129E-2,2.710714564E-2
3.344184886E0,5.368741751E-1,-2.527454868E-2,1.977676153E-2
3.354184886E0,5.967389941E-1,2.420553565E-2,4.848742858E-2
3.364184886E0,6.419430375E-1,9.017898142E-2,1.211803928E-1
3.374184886E0,6.566037536E-1,1.219439730E-1,2.018146068E-1
3.384184886E0,6.608798504E-1,1.421025246E-1,2.641228735E-1
3.394185819E0,6.798166633E-1,1.744783819E-1,2.738966942E-1
3.404185819E0,6.688210964E-1,1.903608888E-1,2.451860309E-1
3.414185819E0,6.040693521E-1,1.873065531E-1,1.920407563E-1
3.424185819E0,5.222133994E-1,1.787544489E-1,1.431715488E-1
3.434185819E0,4.544073939E-1,1.677588671E-1,1.242347211E-1
3.444185819E0,4.049273133E-1,1.573741585E-1,1.150717437E-1
3.454185819E0,3.817144334E-1,1.537089646E-1,1.150717437E-1
3.464186385E0,3.499494195E-1,1.640936732E-1,1.095739529E-1
3.474186385E0,2.919172347E-1,1.903608888E-1,8.880453557E-2
3.484186385E0,1.947896481E-1,2.221258730E-1,7.841982692E-2
3.494186385E0,3.657555580E-2,2.294562608E-1,5.581781268E-2
3.504186385E0,-1.362993121E-1,2.453387529E-1,2.099849284E-2
3.514186385E0,-2.932916880E-1,2.642755806E-1,-3.092505224E-2
3.524186385E0,-4.069126248E-1,2.771037519E-1,-9.323330969E-2
3.534186385E0,-4.832707644E-1,2.911536396E-1,-1.573741585E-1
3.544186385E0,-5.370268822E-1,2.978731692E-1,-2.294562608E-1
3.554186385E0,-5.724570751E-1,2.856558561E-1,-2.972623110E-1
3.564186385E0,-6.225480437E-1,2.587777972E-1,-3.455206454E-1
3.574186385E0,-6.763041615E-1,2.282345295E-1,-3.797291219E-1
3.584186385E0,-7.386124134E-1,2.160172164E-1,-3.919464052E-1
3.594186385E0,-8.070293665E-1,2.111303061E-1,-3.833943009E-1
3.604186385E0,-8.687267303E-1,1.995238662E-1,-3.626248837E-1
3.614186385E0,-9.285915494E-1,1.451568604E-1,-3.406337202E-1
3.624186385E0,-9.426414371E-1,1.097266674E-1,-3.351359367E-1
3.634186385E0,-9.328675866E-1,9.445504099E-2,-3.510184288E-1
3.644186385E0,-9.353110194E-1,5.597052723E-2,-3.827834427E-1
3.654186385E0,-9.322566986E-1,9.544769302E-3,-4.298200607E-1
3.664186385E0,-9.414197206E-1,-3.993531689E-2,-4.884631336E-1
3.674186385E0,-9.664651752E-1,-5.032002553E-2,-5.122868419E-1
3.684186385E0,-1.012890935E0,-7.047858089E-2,-5.165629387E-1
3.694185451E0,-1.058094978E0,-1.162934676E-1,-4.994587004E-1
3.704185451E0,-1.062981844E0,-1.498910636E-1,-4.707480371E-1
3.714185451E0,-1.026940823E0,-1.608866304E-1,-4.353178442E-1
3.724185451E0,-1.006171465E0,-1.547779888E-1,-3.943898678E-1
3.734185451E0,-1.030606031E0,-1.150717437E-1,-3.565162420E-1
3.744185451E0,-1.062981844E0,-7.719809562E-2,-3.113121986E-1
3.754185451E0,-1.067868829E0,-6.864598393E-2,-2.532800138E-1
3.764184884E0,-1.043434143E0,-3.138320148E-2,-2.037999183E-1
3.774184884E0,-9.664651752E-1,7.429648191E-2,-1.811978966E-1
3.784184884E0,-8.461247087E-1,2.221258730E-1,-1.818087697E-1
3.794184884E0,-7.233408093E-1,3.070361316E-1,-1.732566506E-1
3.804184884E0,-6.353762150E-1,3.595705628E-1,-1.451568604E-1
3.814184884E0,-5.956699848E-1,3.956116140E-1,-1.133918613E-1
3.824184884E0,-5.920047760E-1,4.090506434E-1,-1.072832122E-1
3.834184884E0,-5.602397919E-1,4.035528600E-1,-1.072832122E-1
3.844184884E0,-4.643339515E-1,4.188244939E-1,-9.750936180E-2
3.854184884E0,-3.574325144E-1,4.285983145E-1,-9.567677230E-2
3.864184884E0,-2.517528534E-1,4.285983145E-1,-1.280526221E-1
3.874184484E0,-1.845576614E-1,4.365395904E-1,-1.726457924E-1
3.884184484E0,-1.833359301E-1,4.334852397E-1,-2.019673288E-1
3.894184484E0,-2.267073691E-1,3.986659348E-1,-2.190715522E-1
3.904184484E0,-2.926808000E-1,3.406337202E-1,-2.215150148E-1
3.914184484E0,-3.391065598E-1,2.740494311E-1,-2.019673288E-1
3.924184484E0,-3.891975284E-1,2.147954851E-1,-1.854739636E-1
3.934184484E0,-4.460079968E-1,1.304960847E-1,-1.647045463E-1
3.944184484E0,-4.783838391E-1,7.101308554E-3,-1.524872333E-1
3.954184484E0,-4.704425931E-1,-1.175151989E-1,-1.372155994E-1
3.964184484E0,-4.704425931E-1,-2.195297033E-1,-1.311069578E-1
3.974184484E0,-4.722751975E-1,-2.641228735E-1,-1.225548387E-1
3.984184484E0,-4.649448097E-1,-2.659554482E-1,-9.934195876E-2
3.994184484E0,-4.612796307E-1,-2.280818075E-1,-6.635523587E-2
4.004184484E0,-4.838816226E-1,-1.553888470E-1,-4.069889709E-2
4.014184484E0,-5.284748077E-1,-5.765040591E-2,-2.970332280E-2
4.024184484E0,-5.889504552E-1,2.237293869E-2,-3.031418845E-2
4.034184350E0,-6.640868783E-1,4.497495294E-2,-3.886630014E-2
4.044184350E0,-7.129560709E-1,3.886630014E-2,-6.085744873E-2
4.054184350E0,-7.276168466E-1,5.879578181E-3,-8.529205620E-2
4.064184350E0,-6.714172363E-1,-3.993531689E-2,-9.262244403E-2
4.074184350E0,-5.516876578E-1,-7.170030475E-2,-8.040513843E-2
4.084184350E0,-4.130212665E-1,-1.022435725E-1,-2.848159149E-2
4.094184083E0,-3.073415756E-1,-1.107956842E-1,6.192646548E-2
4.104184083E0,-2.719113827E-1,-7.536549866E-2,1.541671157E-1
4.114184083E0,-3.128393590E-1,4.008803144E-2,2.311361432E-1
4.124184083E0,-4.136321247E-1,2.154063582E-1,2.983313203E-1
4.134184083E0,-5.174792409E-1,4.066071808E-1,3.362049460E-1
4.144184083E0,-5.803983212E-1,5.605452061E-1,3.129920661E-1
4.154184083E0,-5.614615083E-1,6.759987473E-1,2.439643145E-1
4.164184083E0,-4.368450046E-1,7.297548652E-1,1.535562575E-1
4.174184483E0,-2.548071742E-1,6.790530682E-1,1.040761694E-1
4.184184483E0,-7.887797803E-2,5.593234897E-1,1.010218412E-1
4.194184483E0,5.612324551E-2,3.913355470E-1,1.065196246E-1
4.204184483E0,1.337031275E-1,2.618321180E-1,8.147415519E-2
4.214184483E0,1.062141955E-1,1.995238662E-1,6.337726954E-3
4.224184483E0,5.490151420E-2,1.848630905E-1,-2.909245715E-2
4.234184483E0,-9.239336476E-3,1.530981064E-1,-3.520110995E-2
4.244184483E0,-6.849326193E-2,1.127809957E-1,3.894265974E-3
4.254184483E0,-1.228602752E-1,7.063129544E-2,6.375905871E-2
4.264184483E0,-1.503492147E-1,1.626428775E-2,1.187369302E-1
4.274184483E0,-1.136972904E-1,-3.810271993E-2,1.437824070E-1
4.284184483E0,-6.795875728E-3,-8.880453557E-2,1.254564524E-1
4.294184483E0,1.740202308E-1,-1.401172131E-1,1.107956842E-1
4.304184483E0,3.896556795E-1,-1.889864355E-1,1.278999150E-1
4.314184483E0,5.661957264E-1,-2.317470014E-1,1.755474061E-1
4.324110420E0,6.798166633E-1,-2.781727612E-1,2.091449946E-1
4.334110553E0,7.506770492E-1,-3.117703497E-1,2.512947023E-1
4.344110553E0,7.916049957E-1,-3.355940878E-1,3.013856411E-1
4.354110553E0,7.812203169E-1,-3.264311254E-1,3.484222591E-1
4.364110553E0,7.366271019E-1,-2.934443951E-1,3.716351390E-1
4.374110553E0,6.547712088E-1,-2.433534414E-1,3.612504303E-1
4.384110553E0,5.979607105E-1,-2.207514346E-1,3.459787965E-1
4.394110819E0,5.484806299E-1,-2.335795909E-1,3.264311254E-1
4.404110819E0,5.118287206E-1,-2.659554482E-1,2.708423734E-1
4.414110819E0,5.173265338E-1,-2.836705446E-1,2.030363381E-1
4.424110819E0,5.350415707E-1,-3.258202374E-1,1.401172131E-1
4.434110819E0,5.558109879E-1,-3.826307058E-1,1.010218412E-1
4.444110819E0,5.857434273E-1,-4.174500406E-1,8.208502084E-2
4.454110819E0,6.168975234E-1,-4.241695404E-1,8.452847600E-2
4.464110819E0,6.443864703E-1,-4.168391824E-1,9.674578160E-2
4.474110819E0,6.480516791E-1,-3.930154145E-1,1.309542358E-1
4.484110819E0,6.083454490E-1,-3.856850564E-1,1.608866304E-1
4.494110819E0,5.271003246E-1,-4.070653319E-1,1.865429729E-1
4.504110819E0,4.446335435E-1,-4.522693455E-1,2.042580694E-1
4.514110819E0,3.945426047E-1,-5.017494559E-1,2.256383449E-1
4.524110819E0,3.749949038E-1,-5.200753808E-1,2.170862406E-1
4.534110819E0,3.951534629E-1,-5.017494559E-1,1.902081668E-1
4.544110819E0,4.342488348E-1,-4.693735838E-1,1.456149966E-1
4.554110819E0,4.709007442E-1,-4.473824203E-1,8.758280426E-2
4.564110819E0,4.812854528E-1,-4.437172413E-1,3.443752974E-2
4.574110819E0,5.087743998E-1,-4.583780169E-1,8.170322515E-3
4.584110819E0,5.631414056E-1,-4.687627256E-1,5.115996581E-3
4.594110819E0,6.028476357E-1,-4.663192630E-1,1.916589774E-2
4.604110819E0,6.388887167E-1,-4.486041665E-1,4.298964143E-2
4.614110819E0,6.798166633E-1,-4.101196527E-1,6.131559983E-2
4.624110819E0,6.938665509E-1,-3.575852513E-1,6.253732741E-2
4.634111152E0,6.853144765E-1,-3.026073575E-1,3.565925732E-2
4.644111152E0,6.895905137E-1,-2.500729561E-1,-1.687515154E-2
4.654111152E0,7.445683479E-1,-2.176970989E-1,-7.307475805E-2
4.664111152E0,8.080983758E-1,-2.812270820E-1,-1.323286891E-1
4.674111152E0,8.655197024E-1,-4.101196527E-1,-1.854739636E-1
4.684111152E0,8.936194777E-1,-5.585598946E-1,-2.245693356E-1
4.694111152E0,8.618544936E-1,-6.672939062E-1,-2.722168267E-1
4.704111152E0,7.690029740E-1,-7.186065912E-1,-3.326924741E-1
4.714111152E0,6.388887167E-1,-7.033349872E-1,-3.723987341E-1
4.724111152E0,5.490915179E-1,-6.391941309E-1,-3.895029426E-1
4.734111152E0,4.849506319E-1,-5.750532746E-1,-3.656792045E-1
4.744111152E0,4.519639313E-1,-5.524512529E-1,-2.795472145E-1
4.754111152E0,4.812854528E-1,-5.329035521E-1,-1.811978966E-1
4.764111152E0,5.344307423E-1,-4.986951053E-1,-1.097266674E-1
4.774111152E0,6.737080216E-1,-4.156174362E-1,-8.101600409E-2
4.784111152E0,8.080983758E-1,-3.533091843E-1,-9.506590664E-2
4.794111152E0,9.131671786E-1,-3.111594915E-1,-1.066723466E-1
4.804111152E0,9.791406393E-1,-3.154355288E-1,-1.005636901E-1
4.814111152E0,1.015792489E0,-3.349832296E-1,-7.735081017E-2
4.824111152E0,1.031675100E0,-3.392592967E-1,-4.069889709E-2
4.834111152E0,1.031064153E0,-3.129920661E-1,9.392052889E-3
4.844111152E0,1.015181661E0,-2.708423734E-1,7.047858089E-2
4.854111152E0,9.815840721E-1,-2.079232633E-1,1.230129898E-1
4.864111152E0,9.394344091E-1,-1.340085566E-1,1.737148017E-1
4.874111152E0,8.875108361E-1,-5.703954399E-2,2.348013222E-1
4.884111152E0,8.166504502E-1,-2.290744742E-4,2.818379402E-1
4.894111152E0,7.121925354E-1,2.909245715E-2,2.793944776E-1
4.904111152E0,6.059019566E-1,6.024658307E-2,2.494620979E-1
4.914111152E0,5.167156458E-1,6.452263892E-2,2.329687327E-1
4.924111152E0,4.134794176E-1,7.124216110E-2,2.121993154E-1
4.934110818E0,2.925280929E-1,9.689849615E-2,1.889864355E-1
4.944110818E0,1.337031275E-1,1.170570552E-1,1.541671157E-1
4.954110818E0,-4.528038576E-2,1.140027270E-1,1.224021241E-1
4.964110818E0,-2.059379518E-1,1.054506153E-1,1.162934676E-1
4.974110818E0,-3.323870599E-1,9.384417534E-2,1.083522215E-1
4.984110818E0,-4.380667508E-1,1.146135926E-1,8.636107296E-2
4.994110818E0,-5.064836740E-1,1.634828150E-1,3.871358559E-2
5.004110818E0,-5.510768294E-1,2.276236564E-1,-2.176207490E-2
5.014110818E0,-5.834526420E-1,2.771037519E-1,-7.857254148E-2
5.024110818E0,-6.121633053E-1,2.929862440E-1,-1.188896447E-1
5.034110818E0,-6.268240809E-1,2.758820057E-1,-1.341612786E-1
5.044110818E0,-6.335436106E-1,2.465604842E-1,-1.268308908E-1
5.054110818E0,-6.170502305E-1,2.264019251E-1,-1.140027270E-1
5.064110818E0,-5.883395672E-1,2.056325078E-1,-9.323330969E-2
5.074110818E0,-5.755113959E-1,2.025781870E-1,-8.712465316E-2
5.084110818E0,-5.840635300E-1,2.135737687E-1,-9.750936180E-2
5.094110818E0,-6.292675734E-1,2.471713424E-1,-1.188896447E-1
5.104110818E0,-6.982953548E-1,3.021492362E-1,-1.488220394E-1
5.114110818E0,-7.648796439E-1,3.638466001E-1,-1.750892550E-1
5.124110818E0,-8.131380081E-1,3.846160173E-1,-1.964695305E-1
5.134110818E0,-8.546768427E-1,3.736204505E-1,-2.062433809E-1
5.144110818E0,-8.827766180E-1,3.522401750E-1,-2.056325078E-1
5.154110818E0,-9.011026025E-1,3.015383482E-1,-1.909717470E-1
5.164110818E0,-9.328675866E-1,2.331214547E-1,-1.604284793E-1
5.174110818E0,-9.719629884E-1,2.025781870E-1,-1.213331074E-1
5.184110818E0,-9.908998013E-1,2.123520374E-1,-7.918340713E-2
5.194110818E0,-9.847911596E-1,2.361757755E-1,-3.764457256E-2
5.204110818E0,-9.676868916E-1,2.606103718E-1,-4.046982154E-3
5.214110818E0,-9.597456455E-1,2.746602893E-1,1.183551457E-2
5.224110818E0,-9.701303840E-1,2.874884605E-1,2.038762718E-2
5.234110818E0,-9.780716300E-1,3.082578778E-1,2.832887508E-2
5.244110818E0,-9.725738168E-1,3.235295117E-1,3.627012298E-2
5.254110818E0,-9.347001910E-1,3.161991239E-1,2.771801129E-2
5.264110818E0,-8.638398051E-1,2.923753858E-1,-3.817907709E-4
5.274110818E0,-7.557166815E-1,2.581669390E-1,-3.581197560E-2
5.284110818E0,-6.494261026E-1,2.001347244E-1,-6.879869848E-2
5.294110818E0,-5.724570751E-1,1.280526221E-1,-9.323330969E-2
5.304110818E0,-5.089271069E-1,4.864014685E-2,-1.127809957E-1
5.314110818E0,-4.362341464E-1,-2.038762718E-2,-1.268308908E-1
5.324110818E0,-3.586542606E-1,-7.658722997E-2,-1.182787865E-1
5.334110818E0,-3.604868650E-1,-1.285107732E-1,-7.368562371E-2
5.344110818E0,-4.160755873E-1,-1.578323096E-1,-7.429648191E-2
5.354110818E0,-4.796055853E-1,-1.376737505E-1,-9.567677230E-2
5.364110818E0,-5.229769945E-1,-7.047858089E-2,-1.451568604E-1
5.374110818E0,-5.333617330E-1,8.323038928E-3,-2.001347244E-1
5.384110818E0,-4.973206818E-1,8.040513843E-2,-2.490039468E-1
5.394110818E0,-4.392884672E-1,1.292743534E-1,-2.746602893E-1
5.404110818E0,-3.971387744E-1,1.457677186E-1,-2.771037519E-1
5.414110818E0,-3.635411859E-1,1.304960847E-1,-2.612212598E-1
5.424110818E0,-3.281109929E-1,1.225548387E-1,-2.257910669E-1
5.434110818E0,-2.951242626E-1,1.427133977E-1,-1.738675237E-1
5.444110818E0,-2.902373374E-1,1.854739636E-1,-1.140027270E-1
5.454110818E0,-3.079524338E-1,2.642755806E-1,-6.513350457E-2
5.464110818E0,-3.439934850E-1,3.797291219E-1,-3.703370690E-2
5.474110818E0,-3.855323195E-1,4.988478422E-1,-1.687515154E-2
5.484110818E0,-4.179081917E-1,6.075818539E-1,1.672243699E-2
5.494110818E0,-4.209625125E-1,7.071529031E-1,3.810271993E-2
5.504110818E0,-4.008039534E-1,7.743480802E-1,4.909829423E-2
5.514110818E0,-3.849214613E-1,8.097782135E-1,7.353290170E-2
5.524110818E0,-3.983604908E-1,8.103891015E-1,9.613491595E-2
5.534110818E0,-4.398993254E-1,7.493025661E-1,1.395063549E-1
5.544110818E0,-5.260313153E-1,6.289620996E-1,2.060906589E-1
5.554110818E0,-6.182720065E-1,5.177846551E-1,2.787836194E-1
5.564110818E0,-6.530913115E-1,4.102723598E-1,3.392592967E-1
5.574110818E0,-6.237697601E-1,2.777146101E-1,3.575852513E-1
5.584110818E0,-5.938373804E-1,2.056325078E-1,3.227659166E-1
5.594110818E0,-6.598108411E-1,2.679407597E-1,2.189188302E-1
5.604110818E0,-7.563275099E-1,4.365395904E-1,7.719809562E-2
5.614110818E0,-7.990881205E-1,6.112470627E-1,-4.314235970E-2
5.624110818E0,-6.989061832E-1,6.466771960E-1,-1.072832122E-1
5.634110818E0,-4.386776090E-1,5.025130510E-1,-1.390482038E-1
5.644110818E0,-1.356884390E-1,2.215150148E-1,-1.445459872E-1
5.654110818E0,1.147663072E-1,-1.065196246E-1,-1.359938681E-1
5.664110818E0,2.534327209E-1,-3.478114009E-1,-1.146135926E-1
5.674110818E0,2.674826086E-1,-4.901430011E-1,-4.497495294E-2
5.684110818E0,1.947896481E-1,-5.255731940E-1,2.405281924E-2
5.694110818E0,1.428661048E-1,-4.235586822E-1,1.315651089E-1
5.704110818E0,5.917757004E-2,-2.366339266E-1,2.341904640E-1
5.714110818E0,3.588833380E-3,-3.016147204E-2,2.903900743E-1
5.724110818E0,-1.046106778E-2,1.390482038E-1,3.105486333E-1
5.734110818E0,-3.130684374E-3,2.551125884E-1,2.848922908E-1
5.744110818E0,5.429064855E-2,3.174208403E-1,2.323578745E-1
5.754110818E0,1.575268805E-1,3.027600944E-1,2.012037337E-1
5.764110818E0,2.931389511E-1,2.129628956E-1,1.914298981E-1
5.774110818E0,4.446335435E-1,9.506590664E-2,2.005928755E-1
5.784110818E0,6.150649190E-1,-9.392052889E-3,2.225840241E-1
5.794110818E0,7.604508996E-1,-6.986771524E-2,2.647337317E-1
5.804110818E0,8.337547183E-1,-1.107956842E-1,3.087160289E-1
5.814110818E0,8.533023596E-1,-1.437824070E-1,3.282637000E-1
5.824110818E0,8.166504502E-1,-1.315651089E-1,3.044399619E-1
5.834111218E0,7.292967439E-1,-1.144608781E-1,2.512947023E-1
5.844111218E0,6.376669407E-1,-1.077413559E-1,1.804343164E-1
5.854111218E0,5.759695768E-1,-9.246972948E-2,1.040761694E-1
5.864111218E0,5.588653684E-1,-9.613491595E-2,3.199406713E-2
5.874111218E0,5.765804052E-1,-1.254564524E-1,-3.581197560E-2
5.884111218E0,6.535494328E-1,-1.706604809E-1,-1.017854214E-1
5.894111218E0,7.060838938E-1,-2.164753675E-1,-1.146135926E-1
5.904111218E0,7.445683479E-1,-2.567924857E-1,-8.529205620E-2
5.914111218E0,7.518987656E-1,-2.781727612E-1,-4.253149405E-2
5.924111218E0,7.622834444E-1,-2.977204621E-1,2.290744742E-4
5.934111218E0,7.824420333E-1,-3.245985210E-1,4.482223839E-2
5.944111218E0,8.105418086E-1,-3.337614834E-1,1.004109755E-1
5.954111218E0,8.380307555E-1,-2.971095741E-1,1.327868253E-1
5.964111218E0,8.533023596E-1,-2.622902691E-1,1.370628923E-1
5.974111218E0,8.649088144E-1,-2.073123902E-1,1.327868253E-1
5.984111218E0,8.826239109E-1,-1.541671157E-1,1.242347211E-1
5.994111218E0,9.040042162E-1,-1.333976984E-1,1.089630872E-1
6.004111218E0,9.149997830E-1,-1.450041384E-1,1.040761694E-1
6.014111218E0,9.052259326E-1,-1.902081668E-1,1.303433776E-1
6.024111218E0,8.759043813E-1,-2.519055605E-1,1.547779888E-1
6.034111218E0,8.313112259E-1,-3.215442002E-1,1.645518243E-1
6.044111218E0,7.769442201E-1,-3.698025346E-1,1.621083617E-1
6.054111218E0,7.250207067E-1,-3.881285191E-1,1.535562575E-1
6.064111218E0,6.614906788E-1,-3.753003478E-1,1.346194297E-1
6.074111218E0,6.046802402E-1,-3.160464168E-1,1.040761694E-1
6.084111218E0,5.875760317E-1,-2.146427780E-1,7.414376736E-2
6.094111218E0,6.095671654E-1,-9.552405030E-2,5.093089119E-2
6.104111218E0,6.590472460E-1,5.268712528E-3,2.038762718E-2
6.114111218E0,7.323510647E-1,8.651378751E-2,-1.137736533E-2
6.124111218E0,7.909941077E-1,1.769218445E-1,-3.397937864E-2
6.134110818E0,8.062657714E-1,2.282345295E-1,-4.619668424E-2
6.144110818E0,7.775551081E-1,2.099085748E-1,-2.420553565E-2
6.154110818E0,7.219663858E-1,1.280526221E-1,1.183551457E-2
6.164110818E0,6.498842835E-1,2.725986205E-2,4.421137273E-2
6.174110818E0,5.814673305E-1,-8.391761035E-2,5.887213722E-2
6.184110818E0,5.380959511E-1,-1.596648991E-1,6.803511828E-2
6.194110818E0,5.380959511E-1,-1.908190250E-1,6.803511828E-2
6.204110818E0,5.784130096E-1,-1.902081668E-1,6.864598393E-2
6.214110818E0,6.260605454E-1,-1.792125851E-1,6.498079002E-2
6.224110818E0,6.553820372E-1,-1.688278764E-1,6.009386852E-2
6.234110818E0,6.511059999E-1,-1.786017269E-1,4.237877578E-2
6.244110818E0,6.358343363E-1,-1.779908538E-1,8.781188168E-3
6.254110818E0,5.985715985E-1,-1.749365330E-1,-4.130976275E-2
6.264110818E0,5.362633467E-1,-1.908190250E-1,-8.834638447E-2
6.274110818E0,4.660138190E-1,-2.183079720E-1,-1.121701300E-1
6.284110818E0,4.153120220E-1,-2.335795909E-1,-1.164461896E-1
6.294110818E0,3.975969255E-1,-2.323578745E-1,-1.225548387E-1
6.304110818E0,4.030947089E-1,-1.981494129E-1,-1.133918613E-1
6.314110818E0,4.238641262E-1,-1.450041384E-1,-9.078984708E-2
6.324110818E0,4.397466183E-1,-8.819366992E-2,-6.085744873E-2
6.334110818E0,4.373031557E-1,-2.893974073E-2,-3.336851299E-2
6.344110818E0,4.006512463E-1,2.298380435E-2,-1.565342210E-2
6.354110818E0,3.371212482E-1,4.192062840E-2,8.170322515E-3
6.364110818E0,2.754238546E-1,2.970332280E-2,4.360050708E-2
6.374110818E0,1.947896481E-1,-5.726861767E-3,8.391761035E-2
6.384110818E0,8.544477820E-2,-4.726569727E-2,1.016327068E-1
6.394110818E0,-4.833471403E-2,-7.108944654E-2,1.120174155E-1
6.404110818E0,-1.986075640E-1,-8.269587904E-2,1.034653038E-1
6.414110818E0,-3.464369476E-1,-8.391761035E-2,9.491318464E-2
6.424110818E0,-4.643339515E-1,-4.115704447E-2,8.575020730E-2
6.434110818E0,-5.296965241E-1,2.214386594E-3,7.292203605E-2
6.444110818E0,-6.084981561E-1,5.658139288E-2,7.353290170E-2
6.454110818E0,-6.610325575E-1,8.101600409E-2,5.887213722E-2
6.464110818E0,-6.891323328E-1,1.097266674E-1,3.077233583E-2
6.474110818E0,-6.732498407E-1,1.500437707E-1,-9.926559869E-4
6.484110818E0,-6.268240809E-1,1.928043365E-1,-3.581197560E-2
6.494110818E0,-5.694027543E-1,2.062433809E-1,-5.597052723E-2
6.504110818E0,-5.205335617E-1,1.781435758E-1,-7.735081017E-2
6.514110818E0,-4.899902940E-1,1.384373307E-1,-9.384417534E-2
6.524110818E0,-4.844925106E-1,8.529205620E-2,-1.085049361E-1
6.534110818E0,-5.199226737E-1,2.603813075E-2,-1.359938681E-1
6.544110818E0,-5.803983212E-1,-3.749185428E-2,-1.695914567E-1
6.554110818E0,-6.482043862E-1,-8.758280426E-2,-2.117411643E-1
6.564110818E0,-7.105126381E-1,-1.321759671E-1,-2.545017302E-1
6.574110818E0,-7.642687559E-1,-1.468367279E-1,-2.984840274E-1
6.584110818E0,-8.033641577E-1,-1.401172131E-1,-3.216969073E-1
6.594110818E0,-8.082510829E-1,-1.248455867E-1,-3.235295117E-1
6.604110818E0,-7.783187032E-1,-8.880453557E-2,-3.064252734E-1
6.614110818E0,-7.044039965E-1,-2.466368489E-2,-2.758820057E-1
6.624110818E0,-6.304892898E-1,3.031418845E-2,-2.361757755E-1
6.634110818E0,-5.901721716E-1,5.352706835E-2,-1.793653071E-1
6.644110818E0,-5.889504552E-1,4.802928120E-2,-1.268308908E-1
6.654110818E0,-6.243806481E-1,2.542726509E-2,-7.735081017E-2
6.664110818E0,-7.025713921E-1,4.046982154E-3,-4.069889709E-2
6.674110818E0,-8.149706125E-1,9.926559869E-4,-3.947716579E-2
6.684110818E0,-9.096547365E-1,1.748601720E-2,-6.269004941E-2
6.694110818E0,-9.597456455E-1,5.902485549E-2,-8.468119800E-2
6.704110818E0,-9.792933464E-1,9.689849615E-2,-9.384417534E-2
6.714110818E0,-1.015945315E0,1.158353239E-1,-9.628763795E-2
6.724110818E0,-1.057484150E0,1.268308908E-1,-1.121701300E-1
6.734110818E0,-1.107575059E0,1.335504204E-1,-1.439351290E-1
6.744110818E0,-1.149113894E0,1.097266674E-1,-1.695914567E-1
6.754110818E0,-1.155222535E0,7.246389240E-2,-1.891391575E-1
6.764110818E0,-1.096579432E0,2.298380435E-2,-2.007455975E-1
6.774110818E0,-9.615782499E-1,-1.427897532E-2,-1.921934783E-1
6.784110818E0,-8.051967621E-1,-4.604396969E-2,-1.830305010E-1
6.794110818E0,-6.665303111E-1,-5.765040591E-2,-1.757001132E-1
6.804110818E0,-5.394703746E-1,-3.443752974E-2,-1.579850167E-1
6.814110818E0,-4.441753924E-1,8.933904581E-3,-1.323286891E-1
6.824110818E0,-3.806453943E-1,4.436408728E-2,-1.042288840E-1
6.834110818E0,-3.116176426E-1,6.024658307E-2,-6.879869848E-2
6.844110818E0,-2.560288906E-1,5.535966158E-2,-2.970332280E-2
6.854110818E0,-2.425898612E-1,5.047274008E-2,1.450804994E-3
6.864110818E0,-2.700788081E-1,3.397937864E-2,2.290744742E-4
6.874110818E0,-3.165045679E-1,1.076649968E-2,-3.886630014E-2
6.884110818E0,-3.769802153E-1,-2.290744742E-4,-1.146135926E-1
6.894110818E0,-4.240168333E-1,-2.588541433E-2,-2.013564557E-1
6.904110818E0,-4.472297132E-1,-7.536549866E-2,-2.606103718E-1
6.914110818E0,-4.429536462E-1,-1.468367279E-1,-2.832123935E-1
6.924110818E0,-4.221842289E-1,-1.810451895E-1,-2.960405648E-1
6.934110818E0,-3.757584691E-1,-1.474476010E-1,-3.137556612E-1
6.944110818E0,-3.354413807E-1,-7.108944654E-2,-3.076470196E-1
6.954110818E0,-3.158936799E-1,2.420553565E-2,-2.661081851E-1
6.964110818E0,-3.244458139E-1,1.262200326E-1,-1.879174262E-1
6.974110818E0,-3.452152312E-1,1.775327176E-1,-8.895725012E-2
6.984110818E0,-3.733150363E-1,1.891391575E-1,8.781188168E-3
6.994110818E0,-3.849214613E-1,1.549306959E-1,1.150717437E-1
7.004110818E0,-3.525456190E-1,1.561524272E-1,1.553888470E-1
7.014110818E0,-2.914590836E-1,1.915826052E-1,1.798234582E-1
7.024110818E0,-2.120465934E-1,2.343431860E-1,2.054798007E-1
7.034110818E0,-1.491274834E-1,2.502256632E-1,2.354121953E-1
7.044110818E0,-1.417970955E-1,2.318997234E-1,2.482403666E-1
7.054110818E0,-2.089922726E-1,1.946369410E-1,2.323578745E-1
7.064110818E0,-3.207806051E-1,1.500437707E-1,2.231948823E-1
7.074110818E0,-4.313472211E-1,1.097266674E-1,2.158645093E-1
7.084110818E0,-5.180900693E-1,9.873109311E-2,1.761582643E-1
7.094110818E0,-5.858961344E-1,1.256091595E-1,1.187369302E-1
7.104110818E0,-6.164394021E-1,1.573741585E-1,7.292203605E-2
7.114110818E0,-6.353762150E-1,1.469894499E-1,5.581781268E-2
7.124110818E0,-6.506478190E-1,1.017854214E-1,5.948300287E-2
7.134110818E0,-6.170502305E-1,7.124216110E-2,6.070473418E-2
7.144110818E0,-5.565745831E-1,7.979427278E-2,2.527454868E-2
7.154110818E0,-5.101488233E-1,1.017854214E-1,-3.947716579E-2
7.164110818E0,-4.808273017E-1,1.402699351E-1,-1.195005104E-1
7.174110818E0,-4.191299081E-1,1.738675237E-1,-1.989129931E-1
7.184110818E0,-2.914590836E-1,1.842522323E-1,-2.404518276E-1
7.194110818E0,-1.094212383E-1,1.537089646E-1,-2.276236564E-1
7.204110818E0,1.251510233E-1,9.628763795E-2,-1.561524272E-1
7.214110818E0,3.493385613E-1,2.054034360E-2,-3.886630014E-2
7.224110818E0,5.264894962E-1,-4.360050708E-2,8.513934165E-2
7.234110818E0,6.480516791E-1,-6.986771524E-2,1.676061451E-1
7.244110818E0,7.335727811E-1,-6.131559983E-2,2.097558528E-1
7.254110818E0,7.995462418E-1,-2.588541433E-2,2.195297033E-1
7.264110818E0,8.514698148E-1,1.076649968E-2,2.085341215E-1
7.274110818E0,8.972846866E-1,3.764457256E-2,1.950950921E-1
7.284110818E0,9.498190880E-1,4.619668424E-2,1.847103834E-1
7.294110818E0,9.742537141E-1,4.925100878E-2,1.902081668E-1
7.304110818E0,9.522625804E-1,3.336851299E-2,1.957059503E-1
7.314110818E0,9.253844619E-1,1.076649968E-2,2.048689276E-1
7.324110818E0,8.930086493E-1,-1.794416644E-2,2.158645093E-1
7.334110818E0,8.465828896E-1,-5.398521572E-2,2.305252701E-1
7.344110818E0,8.093200922E-1,-7.903069258E-2,2.494620979E-1
7.354110818E0,7.971028090E-1,-9.124799818E-2,2.567924857E-1
7.364110818E0,8.129853010E-1,-9.735664725E-2,2.433534414E-1
7.374110818E0,8.539132476E-1,-1.022435725E-1,2.048689276E-1
7.384110818E0,8.923977613E-1,-1.376737505E-1,1.621083617E-1
7.394110818E0,9.333257079E-1,-1.822669208E-1,1.291216463E-1
7.404110818E0,9.614255428E-1,-2.274709493E-1,9.857837856E-2
7.414110818E0,9.492082596E-1,-2.622902691E-1,8.025242388E-2
7.424110818E0,8.911760449E-1,-2.732858360E-1,5.948300287E-2
7.434110818E0,7.971028090E-1,-2.586250603E-1,3.871358559E-2
7.444110818E0,6.755406260E-1,-2.121993154E-1,2.283108793E-2
7.454110818E0,5.490915179E-1,-1.517236531E-1,1.061378326E-2
7.464110818E0,4.550182521E-1,-8.758280426E-2,-8.323038928E-3
7.474110818E0,4.281401932E-1,-3.565925732E-2,-2.970332280E-2
7.484110818E0,4.428009391E-1,-2.061670180E-3,-4.008803144E-2
7.494110818E0,4.892266989E-1,-3.894265974E-3,-3.275764734E-2
7.504110818E0,5.435937047E-1,-3.688098863E-2,-1.259909570E-2
7.514110818E0,5.778021812E-1,-8.452847600E-2,1.183551457E-2
7.524110818E0,5.814673305E-1,-1.303433776E-1,2.832887508E-2
7.534110818E0,5.588653684E-1,-1.639409661E-1,3.504839167E-2
7.544110818E0,5.362633467E-1,-1.786017269E-1,2.649627998E-2
7.554110818E0,4.928919077E-1,-1.981494129E-1,3.283400787E-3
7.564110818E0,4.763985276E-1,-2.103667259E-1,-1.931861416E-2
7.574110818E0,4.800637364E-1,-2.286926806E-1,-5.291620269E-2
7.584110818E0,4.916701615E-1,-2.519055605E-1,-9.689849615E-2
7.594110818E0,4.941136241E-1,-3.050508201E-1,-1.323286891E-1
7.604110818E0,4.880049825E-1,-3.826307058E-1,-1.488220394E-1
7.614110818E0,4.672355652E-1,-4.675409794E-1,-1.543198377E-1
7.624110818E0,4.360814393E-1,-5.274057984E-1,-1.451568604E-1
7.634110884E0,4.073707461E-1,-5.591707826E-1,-1.152244583E-1
7.644110884E0,3.591124117E-1,-5.683337450E-1,-7.612907887E-2
7.654110884E0,2.815325260E-1,-5.451208949E-1,-3.886630014E-2
7.664110884E0,1.813506186E-1,-4.797582924E-1,-2.420553565E-2
7.674110884E0,7.444920391E-2,-3.826307058E-1,-3.947716579E-2
7.684110884E0,-1.595885493E-2,-2.946661115E-1,-8.895725012E-2
7.694110884E0,-8.804095536E-2,-2.757292986E-1,-1.335504204E-1
7.704110884E0,-1.338558495E-1,-3.368158340E-1,-1.653154045E-1
7.714110884E0,-1.540143937E-1,-3.826307058E-1,-1.653154045E-1
7.724110884E0,-1.057560444E-1,-3.893502355E-1,-1.457677186E-1
7.734110884E0,8.475755341E-3,-3.136029541E-1,-1.518763751E-1
7.744110884E0,1.831832081E-1,-1.694387496E-1,-1.824196279E-1
7.754110884E0,3.737731576E-1,-8.399396902E-4,-1.958586723E-1
7.764110884E0,5.179373622E-1,1.457677186E-1,-1.793653071E-1
7.774110884E0,5.918520689E-1,2.135737687E-1,-1.408807933E-1
7.784110884E0,6.101779938E-1,2.190715522E-1,-9.506590664E-2
7.794110884E0,6.022367477E-1,2.502256632E-1,-4.802928120E-2
7.804110884E0,5.894085765E-1,3.345250785E-1,-3.817907709E-4
7.814110884E0,5.600870848E-1,4.072180390E-1,3.749185428E-2
7.824110884E0,5.075526834E-1,4.340961277E-1,8.269587904E-2
7.834110884E0,4.128685594E-1,4.408156276E-1,1.211803928E-1
7.844110884E0,2.827542424E-1,4.518111944E-1,1.443932652E-1
7.854110884E0,1.227075532E-1,4.646393657E-1,1.517236531E-1
7.864110884E0,-5.994115397E-2,5.006804466E-1,1.511127949E-1
7.874110884E0,-2.254856378E-1,5.312237144E-1,1.297325045E-1
7.884110884E0,-3.794236779E-1,5.086216927E-1,1.028544381E-1
7.894110884E0,-5.150357485E-1,4.505894780E-1,6.864598393E-2
7.904110884E0,-6.317110062E-1,3.681226671E-1,2.466368489E-2
7.914110884E0,-7.392233014E-1,2.844341397E-1,-3.275764734E-2
7.924110884E0,-7.966446280E-1,2.092977017E-1,-9.017898142E-2
7.934110817E0,-7.887033820E-1,1.634828150E-1,-1.433242559E-1
7.944110817E0,-7.410559058E-1,1.512655020E-1,-1.921934783E-1
7.954110817E0,-6.879106164E-1,1.512655020E-1,-2.318997234E-1
7.964110817E0,-6.365979314E-1,1.482111812E-1,-2.373975068E-1
7.974110817E0,-5.987243056E-1,1.500437707E-1,-2.294562608E-1
7.984110817E0,-5.993351340E-1,1.506546438E-1,-2.264019251E-1
7.994110817E0,-6.372088194E-1,1.543198377E-1,-2.367866337E-1
8.004110817E0,-7.202864885E-1,1.329395473E-1,-2.642755806E-1
8.014110817E0,-8.314639330E-1,6.696610153E-2,-3.137556612E-1
8.024110817E0,-9.298132658E-1,-8.170322515E-3,-3.901138306E-1
8.034110817E0,-9.963975549E-1,-9.980010986E-2,-4.621959031E-1
8.044110817E0,-9.988410473E-1,-1.773799956E-1,-5.006804466E-1
8.054110817E0,-9.768499136E-1,-2.018146068E-1,-4.945717752E-1
8.064110817E0,-9.676868916E-1,-2.121993154E-1,-4.188244939E-1
8.074110817E0,-9.609673619E-1,-2.091449946E-1,-3.100904822E-1
8.084110817E0,-9.053786397E-1,-1.834886521E-1,-1.830305010E-1
8.094110817E0,-8.192466497E-1,-9.980010986E-2,-5.719225854E-2
8.104110817E0,-6.182720065E-1,6.146831438E-2,6.864598393E-2
8.114110817E0,-5.046510696E-1,1.366047412E-1,1.181260645E-1
8.124110817E0,-4.686099887E-1,1.708131880E-1,1.382846236E-1
8.134110817E0,-5.083162189E-1,1.720349193E-1,1.260673106E-1
8.144110817E0,-6.133850813E-1,1.311069578E-1,9.735664725E-2
8.154110817E0,-7.276168466E-1,6.146831438E-2,8.025242388E-2
8.164110817E0,-7.966446280E-1,4.046982154E-3,6.803511828E-2
8.174110817E0,-7.929794192E-1,-2.038762718E-2,3.932445124E-2
8.184110817E0,-7.318929434E-1,-3.504839167E-2,-1.259909570E-2
8.194110817E0,-6.323218942E-1,-3.749185428E-2,-5.658139288E-2
8.204110817E0,-5.083162189E-1,2.214386594E-3,-8.162686974E-2
8.214110817E0,-3.940844536E-1,4.558581859E-2,-1.036180183E-1
8.224110817E0,-3.384957016E-1,8.284860104E-2,-1.249983013E-1
8.234110817E0,-3.360522389E-1,1.237765700E-1,-1.378264725E-1
8.244110817E0,-3.610977232E-1,1.414916664E-1,-1.500437707E-1
8.254110817E0,-4.130212665E-1,1.219439730E-1,-1.414916664E-1
8.264110817E0,-4.832707644E-1,7.246389240E-2,-1.060614809E-1
8.274110817E0,-5.413029790E-1,2.825251780E-3,-5.230533704E-2
8.284110817E0,-5.962808132E-1,-6.986771524E-2,2.955060638E-2
8.294110817E0,-6.543130279E-1,-1.205695271E-1,1.254564524E-1
8.304110817E0,-6.329327226E-1,-1.358411610E-1,2.109775841E-1
8.314110817E0,-5.602397919E-1,-6.192646548E-2,2.958878577E-1
8.324110817E0,-4.997641146E-1,3.703370690E-2,3.753003478E-1
8.334110817E0,-4.551709592E-1,9.628763795E-2,4.131739736E-1
8.344110817E0,-4.081343412E-1,1.097266674E-1,4.388303161E-1
8.354110817E0,-3.891975284E-1,8.956811577E-2,4.253912866E-1
8.364110817E0,-3.898083866E-1,4.069889709E-2,4.162282944E-1
8.374110817E0,-3.940844536E-1,-2.466368489E-2,3.795763850E-1
8.384110817E0,-3.733150363E-1,-8.880453557E-2,3.136029541E-1
8.394110850E0,-3.189480305E-1,-1.132391468E-1,2.537381649E-1
8.404110850E0,-2.157117873E-1,-8.575020730E-2,1.694387496E-1
8.414110850E0,-9.292787313E-2,-4.848742858E-2,7.719809562E-2
8.424110850E0,2.367102774E-3,-4.970915988E-2,1.611157134E-2
8.434110850E0,4.940372705E-2,-7.658722997E-2,-1.320996135E-2
8.444110850E0,2.191479132E-2,-1.431715488E-1,-2.237293869E-2
8.454110850E0,-9.109527618E-2,-2.390773892E-1,-1.443169173E-2
8.464110850E0,-1.949423701E-1,-3.398701549E-1,-1.015563495E-2
8.474110850E0,-2.902373374E-1,-4.205043614E-1,-1.504255645E-2
8.484110850E0,-3.904192448E-1,-4.577671289E-1,-2.909245715E-2
8.494110850E0,-4.759403765E-1,-4.565454125E-1,-6.085744873E-2
8.504110850E0,-5.370268822E-1,-4.333325326E-1,-1.011745557E-1
8.514110850E0,-5.871178508E-1,-4.168391824E-1,-1.213331074E-1
8.524110850E0,-6.469826698E-1,-3.838524520E-1,-1.811978966E-1
8.534110850E0,-6.970735788E-1,-4.492150247E-1,-2.141846269E-1
8.544110850E0,-6.854671836E-1,-5.280166268E-1,-7.857254148E-2
8.554110850E0,-6.683629155E-1,-4.412737787E-1,-2.825251780E-3
8.564110850E0,-5.810092092E-1,-4.021784067E-1,6.337726954E-3
8.574110850E0,-4.172973335E-1,-3.704134226E-1,3.504839167E-2
8.584110850E0,-2.658027411E-1,-3.056617081E-1,8.880453557E-2
8.594110850E0,-1.552361250E-1,-2.567924857E-1,1.462258697E-1
8.604110850E0,-4.222606122E-2,-2.341904640E-1,1.902081668E-1
8.614110850E0,5.123632401E-2,-2.470186353E-1,1.755474061E-1
8.624110850E0,7.689265907E-2,-2.531272769E-1,8.697193861E-2
8.634110850E0,1.104902476E-1,-2.512947023E-1,-4.375322163E-2
8.644110850E0,1.990657151E-1,-2.525164187E-1,-1.879174262E-1
8.654110850E0,3.114649057E-1,-2.647337317E-1,-2.960405648E-1
8.664110850E0,4.391357601E-1,-2.885574698E-1,-3.045926690E-1
8.674110850E0,5.124396086E-1,-2.867248654E-1,-2.380083650E-1
8.684110850E0,5.820782185E-1,-2.903900743E-1,-1.592067480E-1
8.694110816E0,6.566037536E-1,-2.867248654E-1,-8.895725012E-2
8.704110816E0,7.354053855E-1,-2.415208519E-1,-4.558581859E-2
8.714110816E0,7.848854661E-1,-1.761582643E-1,-3.214678168E-2
8.724110816E0,8.001571298E-1,-9.552405030E-2,-4.864014685E-2
8.734110816E0,8.080983758E-1,2.542726509E-2,-7.979427278E-2
8.744110816E0,8.105418086E-1,1.616502106E-1,-1.072832122E-1
8.754110816E0,7.799985409E-1,2.490039468E-1,-1.256091595E-1
8.764110816E0,6.993643641E-1,2.648864388E-1,-1.152244583E-1
8.774110816E0,5.674174428E-1,2.410627007E-1,-6.146831438E-2
8.784110816E0,4.672355652E-1,1.903608888E-1,3.504839167E-2
8.794110816E0,4.256967306E-1,1.133918613E-1,1.291216463E-1
8.804110816E0,4.354705513E-1,2.237293869E-2,2.036471963E-1
8.814110816E0,4.928919077E-1,-6.009386852E-2,2.445751727E-1
8.824110816E0,5.808565021E-1,-1.169043332E-1,2.433534414E-1
8.834110816E0,6.266713738E-1,-1.517236531E-1,2.091449946E-1
8.844110816E0,5.991824269E-1,-1.718822122E-1,1.486693323E-1
8.854110816E0,5.277112126E-1,-1.761582643E-1,9.796751291E-2
8.864110816E0,4.452444017E-1,-1.767691374E-1,6.375905871E-2
8.874110816E0,3.902665377E-1,-1.743256748E-1,2.588541433E-2
8.884110816E0,3.841578662E-1,-1.682170182E-1,-1.992947794E-2
8.894110816E0,3.847687542E-1,-1.474476010E-1,-7.246389240E-2
