"Time (s)","Gyroscope x (rad/s)","Gyroscope y (rad/s)","Gyroscope z (rad/s)"
1.422558000E-2,-1.145159304E-1,-7.456851006E-2,3.355583176E-2
2.423534600E-2,-1.145159304E-1,-7.456851006E-2,3.355583176E-2
3.421459400E-2,-1.145159304E-1,-7.456851006E-2,3.355583176E-2
4.422436000E-2,-1.145159304E-1,-7.456851006E-2,3.355583176E-2
5.420360800E-2,-1.145159304E-1,-7.456851006E-2,3.355583176E-2
6.421337300E-2,-1.145159304E-1,-7.456851006E-2,3.355583176E-2
7.419262100E-2,-1.145159304E-1,-7.456851006E-2,3.355583176E-2
8.420238700E-2,-1.145159304E-1,-7.456851006E-2,3.355583176E-2
9.418163500E-2,9.906959534E-1,1.278317273E-1,-6.141249537E-1
1.042219180E-1,1.077515006E0,-2.183792181E-2,-4.335626364E-1
1.142011660E-1,1.050883412E0,-1.384843737E-1,-2.183792144E-1
1.242109320E-1,9.001484513E-1,-1.944107562E-1,-6.924218964E-3
1.341901800E-1,6.317018270E-1,-1.976065636E-1,1.949433982E-1
1.442304630E-1,2.609897852E-1,-1.709749401E-1,3.589941263E-1
1.542097110E-1,-1.651159972E-1,-1.198422536E-1,4.655205607E-1
1.642194770E-1,-5.741775632E-1,-5.805691332E-2,5.070658922E-1
1.741682070E-1,-9.060074091E-1,5.858954508E-3,4.527373910E-1
1.841779730E-1,-1.121190786E0,3.781688958E-2,3.392867148E-1
1.941267030E-1,-1.205879331E0,5.113269389E-2,1.912149638E-1
2.041669860E-1,-1.171258211E0,2.716424316E-2,5.752427876E-2
2.141462350E-1,-1.050350785E0,-1.810949668E-2,-3.462109342E-2
2.241865180E-1,-9.209211469E-1,-7.190535218E-2,-7.403588295E-2
2.341657660E-1,-8.175904751E-1,-1.182443574E-1,-7.030745596E-2
2.441755310E-1,-7.435545921E-1,-1.752360016E-1,-2.876213938E-2
2.541242620E-1,-6.998787522E-1,-2.556634545E-1,1.704423130E-2
2.641340270E-1,-6.695187092E-1,-3.121224940E-1,4.687163606E-2
2.740827580E-1,-6.215817928E-1,-3.323625028E-1,8.042746782E-2
2.841230410E-1,-5.358279943E-1,-3.408846259E-1,1.246359423E-1
2.940412540E-1,-4.095941782E-1,-3.392867148E-1,1.613875628E-1
3.040510200E-1,-2.641855776E-1,-2.870887816E-1,1.874865443E-1
3.139997500E-1,-1.315601617E-1,-1.922802329E-1,1.858886480E-1
3.240400330E-1,-3.408846259E-2,-7.350324839E-2,1.603222936E-1
3.340192810E-1,2.130528912E-2,7.510114461E-2,1.027980223E-1
3.440290470E-1,2.503371425E-2,2.231729031E-1,4.207794741E-2
3.540388130E-1,-3.728425596E-3,3.600593805E-1,-1.970739290E-2
3.640485780E-1,-6.338323653E-2,4.021373391E-1,-8.042746782E-2
3.739973090E-1,-1.592570394E-1,3.968110085E-1,-1.368864775E-1
3.840375920E-1,-2.844256163E-1,3.909520507E-1,-1.773665249E-1
3.940168400E-1,-4.159857631E-1,3.760383427E-1,-1.848233789E-1
4.040266060E-1,-5.315669775E-1,3.605920076E-1,-1.693770438E-1
4.139753360E-1,-5.997439027E-1,3.201119602E-1,-1.342233270E-1
4.239851020E-1,-5.949501991E-1,2.727077007E-1,-1.081243455E-1
4.339338320E-1,-4.964132309E-1,2.141181529E-1,-8.415589482E-2
4.439741150E-1,-2.908172011E-1,1.720402092E-1,-8.309062570E-2
4.538923280E-1,7.456851192E-3,1.571265012E-1,-1.171790883E-1
4.639020940E-1,3.531351686E-1,1.715075821E-1,-1.645833552E-1
4.738508240E-1,6.977482438E-1,2.226402760E-1,-1.704423130E-1
4.838911080E-1,9.576727748E-1,2.460760921E-1,-1.496696621E-1
4.938703560E-1,1.006142259E0,2.050634027E-1,-1.778991669E-1
5.039106390E-1,8.708537221E-1,1.757686287E-1,-2.295644879E-1
5.138898870E-1,5.262406468E-1,1.193096191E-1,-3.142530024E-1
5.239301700E-1,8.202536404E-2,3.568635881E-2,-3.776362538E-1
5.339094180E-1,-3.126551211E-1,3.834952042E-2,-3.957457542E-1
5.438886660E-1,-5.182511806E-1,-1.544633508E-2,-3.691141307E-1
5.538373970E-1,-4.458131790E-1,3.728425596E-3,-2.982740402E-1
5.638471620E-1,-7.190535218E-2,1.187769845E-1,-2.348908186E-1
5.737958930E-1,4.969458580E-1,2.423476577E-1,-2.002697140E-1
5.838361760E-1,1.064199209E0,3.669835925E-1,-1.784317940E-1
5.938154240E-1,1.448759675E0,5.123922229E-1,-1.715075821E-1
6.038557070E-1,1.581917763E0,6.578007936E-1,-1.693770438E-1
6.138044380E-1,1.510545015E0,7.494135499E-1,-1.635181010E-1
6.238447210E-1,1.295894265E0,7.590008974E-1,-1.486043930E-1
6.338239690E-1,1.014131784E0,7.131945491E-1,-1.171790883E-1
6.438642520E-1,7.637946010E-1,6.247776151E-1,-5.965480953E-2
6.538435000E-1,5.795038939E-1,4.836300611E-1,1.225054078E-2
6.638837830E-1,4.388889670E-1,2.924150825E-1,7.776430249E-2
6.738630310E-1,3.089267015E-1,1.336906850E-1,1.448759735E-1
6.839033150E-1,1.960086524E-1,2.024002373E-2,2.189118415E-1
6.938520450E-1,8.255799860E-2,-7.297061384E-2,2.876214087E-1
7.038618110E-1,-2.450108156E-2,-1.374191195E-1,3.557983339E-1
7.138105410E-1,-1.225054115E-1,-1.725728363E-1,3.978762627E-1
7.238508240E-1,-1.933455020E-1,-1.603222936E-1,4.324973822E-1
7.338300720E-1,-2.189118415E-1,-1.278317273E-1,4.383563101E-1
7.438703560E-1,-2.178465873E-1,-1.193096191E-1,4.149205089E-1
7.538496040E-1,-1.965412945E-1,-1.368864775E-1,3.675162494E-1
7.638898870E-1,-1.555286050E-1,-1.320927888E-1,3.222424984E-1
7.738386170E-1,-9.480853379E-2,-9.693906456E-2,2.700445354E-1
7.838789010E-1,-2.822950855E-2,-4.900216311E-2,2.178465873E-1
7.938276310E-1,1.970739290E-2,1.384843793E-2,1.736381054E-1
8.038679140E-1,3.675162420E-2,5.592638254E-2,1.267664731E-1
8.138471620E-1,1.491370238E-2,6.924218684E-2,8.042746782E-2
8.238874450E-1,-5.379585549E-2,7.563377917E-2,3.728425503E-2
8.338666930E-1,-1.613875628E-1,6.870955974E-2,-4.261057824E-3
8.439069770E-1,-2.966761589E-1,4.261057824E-2,-4.420847446E-2
8.538557070E-1,-4.388889670E-1,3.728425596E-3,-8.255799860E-2
8.638959900E-1,-5.667206645E-1,-3.142530099E-2,-1.049285457E-1
8.738752380E-1,-6.460828781E-1,-2.822950855E-2,-9.906959534E-2
8.839155220E-1,-6.615292430E-1,-4.207794741E-2,-7.456851006E-2
8.938947700E-1,-5.981460214E-1,-5.965480953E-2,-4.633900523E-2
9.039045350E-1,-4.452805519E-1,-8.681905270E-2,-3.142530099E-2
9.138532660E-1,-2.237055302E-1,-1.129180342E-1,-4.687163606E-2
9.238630310E-1,2.556634694E-2,-7.510114461E-2,-9.800432622E-2
9.338117620E-1,2.439455539E-1,1.139832959E-1,-1.368864775E-1
9.438520450E-1,4.245078862E-1,3.781688809E-1,-1.113201380E-1
9.538312930E-1,5.619270205E-1,4.777711034E-1,-7.989482954E-3
9.638715760E-1,6.380934119E-1,3.344930410E-1,1.113201380E-1
9.738508240E-1,6.551376581E-1,1.288969964E-1,1.747033745E-1
9.838605900E-1,6.237123609E-1,-1.294296384E-1,1.965412945E-1
9.938093200E-1,5.656554103E-1,-3.414172530E-1,2.002697140E-1
1.003819086E0,5.352953672E-1,-4.804342687E-1,1.704423130E-1
1.013798334E0,5.747101903E-1,-5.033374429E-1,1.315601617E-1
1.023838617E0,6.812366247E-1,-4.298342168E-1,9.747169912E-2
1.033817865E0,8.021441102E-1,-3.328951299E-1,4.687163606E-2
1.043858149E0,8.245146871E-1,-2.194444835E-1,-1.597896591E-2
1.053837397E0,6.998787522E-1,-1.193096191E-1,-7.669904083E-2
1.063847162E0,4.660531878E-1,-4.687163606E-2,-1.065264493E-1
1.073795893E0,1.672465205E-1,5.858954508E-3,-7.776430249E-2
1.083805658E0,-1.438107044E-1,4.261057824E-2,-2.982740477E-2
1.093754389E0,-4.372910559E-1,7.403588295E-2,1.065264456E-2
1.103764154E0,-6.732471585E-1,9.267801046E-2,4.474110901E-2
1.113743402E0,-8.271778226E-1,1.118527651E-1,7.137271762E-2
1.123722651E0,-8.708537221E-1,1.454086006E-1,1.049285457E-1
1.133671381E0,-8.048073053E-1,1.837581247E-1,1.480717659E-1
1.143681147E0,-6.695187092E-1,1.800296903E-1,2.109223604E-1
1.153629877E0,-5.060006380E-1,1.422128081E-1,2.711097896E-1
1.163670160E0,-3.419498801E-1,8.681905270E-2,3.110572100E-1
1.173649408E0,-1.832254827E-1,2.290318534E-2,3.073287904E-1
1.183659174E0,-4.846953228E-2,-5.273059011E-2,2.535329461E-1
1.193607904E0,5.592638254E-2,-1.129180342E-1,1.800296903E-1
1.203617670E0,1.384843737E-1,-1.576591432E-1,1.001348570E-1
1.213566401E0,1.922802329E-1,-1.933455020E-1,2.769687586E-2
1.223606684E0,2.215750068E-1,-2.109223604E-1,-3.834952042E-2
1.233555414E0,2.258360684E-1,-2.045307755E-1,-7.563377917E-2
1.243595697E0,2.050634027E-1,-1.704423130E-1,-9.214537591E-2
1.253513910E0,1.688444167E-1,-1.161138266E-1,-9.960222989E-2
1.263523676E0,1.411475390E-1,-3.515372798E-2,-9.267801046E-2
1.273472406E0,1.198422536E-1,2.982740477E-2,-8.042746782E-2
1.283512690E0,9.906959534E-2,5.166532472E-2,-6.870955974E-2
1.293491938E0,6.072007492E-2,5.006742850E-2,-5.645901710E-2
1.303532221E0,-3.728425596E-3,6.338323653E-2,-4.154531285E-2
1.313511469E0,-8.522115648E-2,8.841694891E-2,-2.663161233E-2
1.323551752E0,-1.491370201E-1,1.384843737E-1,5.326322280E-4
1.333500483E0,-1.901497096E-1,1.533980817E-1,2.503371425E-2
1.343540766E0,-1.901497096E-1,1.518001854E-1,3.249056637E-2
1.353489496E0,-1.480717659E-1,1.629854590E-1,3.728425596E-3
1.363529779E0,-7.243798673E-2,2.034655064E-1,-6.285060197E-2
1.373509027E0,-2.130528912E-3,2.338255495E-1,-1.379517466E-1
1.383518793E0,8.202536404E-2,2.743056118E-1,-2.396845073E-1
1.393528559E0,1.448759735E-1,2.812298238E-1,-2.775014043E-1
1.403507807E0,1.619201899E-1,1.800296903E-1,-1.470064968E-1
1.413456537E0,1.283643693E-1,-1.757686399E-2,1.368864775E-1
1.423435785E0,1.001348570E-1,-1.784317940E-1,3.962783813E-1
1.433384516E0,1.384843737E-1,-2.886866629E-1,4.932174385E-1
1.443424799E0,2.428802997E-1,-3.020024598E-1,4.585963488E-1
1.453404047E0,3.648530841E-1,-1.837581247E-1,3.488741219E-1
1.463444330E0,4.953479767E-1,1.171790902E-2,2.141181529E-1
1.473423578E0,6.135923266E-1,1.869539171E-1,9.906959534E-2
1.483433344E0,6.934871674E-1,3.302319944E-1,-2.183792181E-2
1.493382074E0,7.121292949E-1,4.346278906E-1,-1.395496428E-1
1.503422358E0,6.620618701E-1,4.644553065E-1,-1.944107562E-1
1.513401606E0,5.358279943E-1,3.994741738E-1,-1.432780623E-1
1.523441889E0,3.456783295E-1,2.545982003E-1,-1.597896684E-3
1.533421137E0,1.027980223E-1,7.190535218E-2,1.874865443E-1
1.543430902E0,-1.486043930E-1,-9.906959534E-2,3.829625845E-1
1.553440668E0,-3.685815036E-1,-2.221076339E-1,5.406216979E-1
1.563419916E0,-4.996090233E-1,-2.812298238E-1,6.391586661E-1
1.573368647E0,-5.363606811E-1,-2.961435318E-1,6.838997602E-1
1.583408930E0,-4.964132309E-1,-2.673813701E-1,6.716492176E-1
1.593388178E0,-4.324973822E-1,-2.125202566E-1,5.779059529E-1
1.603397943E0,-3.611246645E-1,-1.209075153E-1,4.330300093E-1
1.613407709E0,-2.918824553E-1,-4.793690145E-2,2.647182047E-1
1.623386957E0,-1.997370869E-1,4.793690052E-3,1.097222418E-1
1.633335688E0,-8.415589482E-2,9.587380104E-3,-9.054748341E-3
1.643345453E0,3.994741663E-2,-3.515372798E-2,-8.948221803E-2
1.653324701E0,1.603222936E-1,-5.432848632E-2,-1.549959779E-1
1.663364985E0,2.455434501E-1,-2.982740477E-2,-2.237055302E-1
1.673283197E0,2.796319127E-1,1.651159860E-2,-2.908172011E-1
1.683292963E0,2.657834888E-1,6.178534031E-2,-3.451456726E-1
1.693241693E0,2.157160491E-1,7.669904083E-2,-3.776362538E-1
1.703281977E0,1.432780623E-1,6.018744037E-2,-3.952131271E-1
1.713230707E0,5.006742850E-2,7.989482954E-3,-3.866910040E-1
1.723270990E0,-5.965480953E-2,-6.551376730E-2,-3.573962152E-1
1.733219721E0,-1.944107562E-1,-1.480717659E-1,-3.147856593E-1
1.743260004E0,-3.382214606E-1,-2.077265680E-1,-2.759034932E-1
1.753239252E0,-4.799016416E-1,-2.338255495E-1,-2.519350350E-1
1.763279535E0,-6.045376062E-1,-2.141181529E-1,-2.375539690E-1
1.773258783E0,-6.924219131E-1,-1.683117896E-1,-2.295644879E-1
1.783268549E0,-7.265103459E-1,-1.294296384E-1,-2.231729031E-1
1.793217279E0,-7.121292949E-1,-7.989483327E-2,-2.119876295E-1
1.803227045E0,-6.306365728E-1,-3.568635881E-2,-2.125202566E-1
1.813206293E0,-4.767058492E-1,-7.456851192E-3,-2.327602804E-1
1.823216059E0,-2.604571581E-1,-9.054748341E-3,-2.769687474E-1
1.833225824E0,-2.130528912E-2,-6.977482140E-2,-3.520699143E-1
1.843205072E0,1.928128600E-1,-1.225054115E-1,-4.665858448E-1
1.853153803E0,3.004045784E-1,-1.075917110E-1,-5.779059529E-1
1.863163568E0,3.041329980E-1,-3.834952042E-2,-6.231797338E-1
1.873142817E0,2.577939928E-1,-1.091896072E-1,-5.853627920E-1
1.883183100E0,1.922802329E-1,-2.854908705E-1,-4.910869002E-1
1.893131830E0,1.075917110E-1,-3.360909224E-1,-4.356931746E-1
1.903172113E0,8.788431436E-2,-3.222424984E-1,-4.937500656E-1
1.913120844E0,2.689792812E-1,-1.581917703E-1,-6.114618182E-1
1.923161127E0,6.189186573E-1,-2.210423797E-1,-4.719121456E-1
1.933140375E0,9.406285286E-1,-2.780340314E-1,-1.826928556E-1
1.943180658E0,1.080710769E0,-1.251685768E-1,1.171790902E-2
1.953159906E0,1.075384498E0,4.154531285E-2,1.038632840E-1
1.963169672E0,9.608685374E-1,1.571265012E-1,1.816275865E-1
1.973118402E0,7.520766854E-1,2.263686955E-1,2.359560728E-1
1.983158686E0,4.900216460E-1,2.631203234E-1,2.684466541E-1
1.993137934E0,2.348908186E-1,2.892192900E-1,3.030677438E-1
2.003178217E0,3.515372798E-2,3.137203753E-1,3.456783295E-1
2.013157465E0,-8.841694891E-2,3.147856593E-1,3.834952116E-1
2.023167231E0,-1.342233270E-1,2.743056118E-1,4.063983858E-1
2.033176996E0,-1.166464612E-1,2.167813182E-1,4.362258017E-1
2.043186762E0,-6.657902896E-2,1.715075821E-1,4.676510990E-1
2.053135492E0,-2.130528912E-2,1.374191195E-1,4.729774296E-1
2.063175776E0,1.544633508E-2,1.283643693E-1,4.830974340E-1
2.073155024E0,1.331580617E-2,8.948221803E-2,4.644553065E-1
2.083164789E0,-1.597896684E-3,4.101268202E-2,4.133225977E-1
2.093174555E0,-2.450108156E-2,-2.450108156E-2,3.190467060E-1
2.103184320E0,-2.769687586E-2,-8.202536404E-2,1.933455020E-1
2.113133051E0,-1.171790902E-2,-1.315601617E-1,3.142530099E-2
2.123142817E0,4.580637068E-2,-1.565938741E-1,-1.438107044E-1
2.133122065E0,1.267664731E-1,-1.342233270E-1,-2.961435318E-1
2.143162348E0,2.146507949E-1,-8.575379103E-2,-4.117247164E-1
2.153141596E0,2.940129936E-1,-2.290318534E-2,-4.751079381E-1
2.163181879E0,3.478088379E-1,3.728425503E-2,-4.708468914E-1
2.173161127E0,3.723099232E-1,9.747169912E-2,-4.170510471E-1
2.183201410E0,3.605920076E-1,1.438107044E-1,-3.275688291E-1
2.193180658E0,3.004045784E-1,1.592570394E-1,-2.098570913E-1
2.203159906E0,1.928128600E-1,1.272991002E-1,-9.427590668E-2
2.213108637E0,3.675162420E-2,7.137271762E-2,-6.924218964E-3
2.223087885E0,-1.166464612E-1,2.290318534E-2,5.379585549E-2
2.233036615E0,-3.275688291E-1,-4.793690052E-3,1.294296384E-1
2.243076899E0,-5.331648588E-1,3.941478580E-2,2.045307755E-1
2.253056147E0,-6.897587180E-1,1.294296384E-1,2.647182047E-1
2.263096430E0,-7.504788041E-1,2.396845073E-1,2.918824553E-1
2.273075678E0,-6.977482438E-1,3.020024598E-1,2.977414131E-1
2.283085443E0,-5.278385282E-1,3.158509135E-1,2.844256163E-1
2.293034174E0,-2.886866629E-1,2.908172011E-1,2.439455539E-1
2.303074457E0,-5.699164793E-2,2.801645398E-1,1.773665249E-1
2.313053705E0,1.294296384E-1,3.137203753E-1,1.054611802E-1
2.323093988E0,2.338255495E-1,3.366235793E-1,2.130528912E-2
2.333073236E0,2.492718846E-1,3.328951299E-1,-6.817692518E-2
2.343083002E0,1.922802329E-1,2.695119083E-1,-1.454086006E-1
2.353062250E0,8.735168725E-2,1.741707325E-1,-2.045307755E-1
2.363041498E0,-4.846953228E-2,6.125270575E-2,-2.306297570E-1
2.372990229E0,-1.741707325E-1,4.261057824E-3,-2.151834220E-1
2.382999994E0,-2.460760921E-1,-4.154531285E-2,-1.810949594E-1
2.392948725E0,-2.359560728E-1,-1.406149119E-1,-1.368864775E-1
2.402958490E0,-1.805623323E-1,-2.572613657E-1,-8.149272949E-2
2.412907221E0,-1.006674916E-1,-2.455434501E-1,-6.391586363E-2
2.422947504E0,-2.769687586E-2,-1.432780623E-1,-6.498113275E-2
2.432926752E0,4.048004746E-2,1.065264456E-3,-4.633900523E-2
2.442967035E0,7.084008306E-2,1.400822699E-1,2.609897964E-2
2.452915766E0,2.237055451E-2,2.018676102E-1,1.603222936E-1
2.462956049E0,-1.187769845E-1,1.736381054E-1,3.233077526E-1
2.472904779E0,-3.478088379E-1,1.065264493E-1,4.729774296E-1
2.482945063E0,-6.072007418E-1,3.994741663E-2,5.624596477E-1
2.492924311E0,-8.325041533E-1,-3.089267015E-2,5.960154533E-1
2.502964594E0,-9.725864530E-1,-9.214537591E-2,5.784385800E-1
2.512943842E0,-9.875001311E-1,-1.272991002E-1,5.235774517E-1
2.522984125E0,-8.612663150E-1,-1.480717659E-1,4.319647253E-1
2.532932856E0,-6.391586661E-1,-1.656486243E-1,3.302319944E-1
2.542973139E0,-3.872236311E-1,-1.693770438E-1,2.450108230E-1
2.552952387E0,-1.592570394E-1,-1.597896665E-1,1.757686287E-1
2.562992670E0,2.343581803E-2,-1.262338310E-1,1.448759735E-1
2.572971918E0,1.603222936E-1,-9.960222989E-2,1.123853996E-1
2.583012201E0,2.189118415E-1,-8.468852192E-2,8.894958347E-2
2.592991449E0,1.848233789E-1,-9.853696078E-2,5.379585549E-2
2.603001215E0,8.788431436E-2,-9.800432622E-2,2.077265643E-2
2.612949945E0,-2.290318534E-2,-8.575379103E-2,-1.491370238E-2
2.622990229E0,-1.134506613E-1,-6.870955974E-2,-6.072007492E-2
2.632969477E0,-1.454086006E-1,-5.645901710E-2,-8.415589482E-2
2.643009760E0,-1.288969964E-1,-8.681905270E-2,-7.084008306E-2
2.652989008E0,-8.042746782E-2,-1.533980817E-1,-2.609897964E-2
2.663029291E0,-3.515372798E-2,-2.045307755E-1,3.728425503E-2
2.673008539E0,-2.077265643E-2,-2.167813182E-1,8.149272949E-2
2.683048822E0,-2.663161233E-2,-2.141181529E-1,1.219727769E-1
2.692997553E0,-6.285060197E-2,-1.821602285E-1,1.384843737E-1
2.703037836E0,-1.251685768E-1,-1.619201899E-1,1.310275346E-1
2.713017084E0,-2.178465873E-1,-1.464738697E-1,9.800432622E-2
2.723057367E0,-3.296993375E-1,-1.161138266E-1,4.367584363E-2
2.733036615E0,-4.383563101E-1,-6.072007492E-2,-1.384843793E-2
2.743076899E0,-5.139901042E-1,-1.704423130E-2,-7.084008306E-2
2.753056147E0,-5.400890708E-1,3.728425503E-2,-1.251685768E-1
2.763096430E0,-5.065332651E-1,7.190535218E-2,-1.640507281E-1
2.773075678E0,-4.005394280E-1,6.018744037E-2,-2.055960447E-1
2.783054926E0,-2.423476577E-1,2.876213938E-2,-2.668487430E-1
2.793003656E0,-6.977482140E-2,-5.326322280E-4,-3.589941263E-1
2.803013422E0,5.699164793E-2,-3.728425596E-3,-4.527373910E-1
2.812962152E0,8.575379103E-2,-4.793690052E-3,-5.384911895E-1
2.823002436E0,5.326322280E-4,7.989482954E-3,-6.072007418E-1
2.832981684E0,-1.853560209E-1,3.462109342E-2,-6.450176239E-1
2.843021967E0,-3.797667921E-1,1.043959185E-1,-6.466155052E-1
2.852970697E0,-4.633900523E-1,1.155811921E-1,-5.965480804E-1
2.863010981E0,-3.712446690E-1,7.989483327E-2,-5.065332651E-1
2.872990229E0,-8.735168725E-2,-2.024002373E-2,-3.872236311E-1
2.883030512E0,2.886866629E-1,-1.049285457E-1,-2.151834220E-1
2.893009760E0,6.301039457E-1,-1.981391907E-1,-5.645901710E-2
2.903050043E0,8.266451955E-1,-2.284992188E-1,7.243798673E-2
2.913029291E0,8.325041533E-1,-2.636529505E-1,1.486043930E-1
2.923039057E0,6.844323874E-1,-2.530003190E-1,1.858886480E-1
2.932987787E0,4.596616030E-1,-2.039981484E-1,1.560612470E-1
2.943028070E0,2.370213419E-1,-1.560612470E-1,7.510114461E-2
2.953007318E0,5.219795927E-2,-7.243798673E-2,-1.544633508E-2
2.963047602E0,-6.870955974E-2,4.261057824E-3,-5.219795927E-2
2.973026850E0,-1.214401498E-1,-5.326322280E-3,3.195793368E-3
2.983067133E0,-1.235706806E-1,-8.735168725E-2,1.251685768E-1
2.993046381E0,-1.033306494E-1,-2.087918371E-1,2.844256163E-1
3.003086664E0,-1.001348570E-1,-3.366235793E-1,4.378236830E-1
3.013035395E0,-1.475391239E-1,-4.319647253E-1,5.507417321E-1
3.023075678E0,-2.572613657E-1,-4.372910559E-1,6.029396653E-1
3.033024408E0,-3.946804702E-1,-3.760383427E-1,5.933523178E-1
3.043064692E0,-5.251753926E-1,-3.073287904E-1,5.331648588E-1
3.053043940E0,-6.253102422E-1,-2.418150306E-1,4.431500137E-1
3.063084223E0,-6.956176758E-1,-1.981391907E-1,3.446130455E-1
3.073063471E0,-7.265103459E-1,-1.699096859E-1,2.253034264E-1
3.083103754E0,-6.934871674E-1,-1.592570394E-1,1.145159304E-1
3.093052485E0,-5.933523178E-1,-1.709749401E-1,3.249056637E-2
3.103092768E0,-4.484763443E-1,-1.954760253E-1,-3.568635881E-2
3.113041498E0,-2.753708661E-1,-2.055960447E-1,-6.551376730E-2
3.123081781E0,-1.097222418E-1,-1.896170676E-1,-6.924218684E-2
3.133061029E0,1.278317347E-2,-1.454086006E-1,-5.912217870E-2
3.143101313E0,7.243798673E-2,-8.255799860E-2,-2.130528912E-2
3.153080561E0,6.072007492E-2,-3.675162420E-2,2.769687586E-2
3.163120844E0,-1.331580617E-2,-3.728425596E-3,6.657902896E-2
3.173069574E0,-1.070590764E-1,1.970739290E-2,9.534116834E-2
3.183109858E0,-2.498045117E-1,3.888215125E-2,1.150485575E-1
3.193089106E0,-3.834952116E-1,5.858954415E-2,1.118527651E-1
3.203129389E0,-4.756405652E-1,6.657902896E-2,9.321063757E-2
3.213108637E0,-5.091964006E-1,6.125270575E-2,5.060006306E-2
3.223148920E0,-4.862932265E-1,7.243798673E-2,5.326322280E-3
3.233128168E0,-4.287689328E-1,9.587380290E-2,-3.249056637E-2
3.243168451E0,-3.371562064E-1,1.438107044E-1,-6.924218684E-2
3.253117182E0,-2.226402760E-1,1.720402092E-1,-1.123853996E-1
3.263126947E0,-1.107875034E-1,1.528654546E-1,-1.507349163E-1
3.273075678E0,-2.077265643E-2,1.262338310E-1,-2.024002522E-1
3.283115961E0,3.408846259E-2,1.102548689E-1,-2.748382390E-1
3.293064692E0,4.261057824E-2,1.150485575E-1,-3.632551730E-1
3.303104975E0,7.989482954E-3,1.161138266E-1,-4.218447208E-1
3.313084223E0,-4.207794741E-2,8.149272949E-2,-3.978762627E-1
3.323124506E0,-7.989483327E-2,1.810949668E-2,-2.663161159E-1
3.333073236E0,-7.297061384E-2,-1.123853996E-1,-7.403588295E-2
3.343083002E0,-3.195793368E-3,-2.844256163E-1,1.027980223E-1
3.353031733E0,1.113201380E-1,-3.787015080E-1,2.279665917E-1
3.363072016E0,2.418150306E-1,-4.042678475E-1,2.705771625E-1
3.373051264E0,3.632551730E-1,-3.478088379E-1,2.386192381E-1
3.383091547E0,4.559331834E-1,-2.498045117E-1,1.624528319E-1
3.393070795E0,4.846953154E-1,-5.539375171E-2,6.231797114E-2
3.403080561E0,4.596616030E-1,1.347559541E-1,-2.822950855E-2
3.413059809E0,4.127899706E-1,2.700445354E-1,-5.752427876E-2
3.423100092E0,3.392867148E-1,3.243730366E-1,-2.716424316E-2
3.433079340E0,2.247707993E-1,3.243730366E-1,4.314320907E-2
3.443119623E0,7.137271762E-2,2.647182047E-1,1.326254308E-1
3.453098871E0,-1.049285457E-1,2.008023560E-1,2.157160491E-1
3.463108637E0,-2.759034932E-1,1.235706806E-1,2.940129936E-1
3.473118402E0,-4.410194755E-1,3.462109342E-2,3.392867148E-1
3.483097651E0,-5.779059529E-1,-8.522115648E-3,3.419498801E-1
3.493046381E0,-6.428871155E-1,-1.704423130E-2,2.865561247E-1
3.503056147E0,-6.274407506E-1,-3.568635881E-2,1.954760253E-1
3.513004877E0,-5.134574771E-1,-5.432848632E-2,8.628641814E-2
3.523014643E0,-3.227751255E-1,-7.297061384E-2,-1.384843793E-2
3.532993891E0,-9.693906456E-2,-6.977482140E-2,-7.936219871E-2
3.543034174E0,1.198422536E-1,-3.941478580E-2,-1.049285457E-1
3.553013422E0,2.812298238E-1,1.597896684E-3,-1.065264493E-1
3.563023188E0,3.765709996E-1,2.130528912E-2,-9.800432622E-2
3.573002436E0,4.202468395E-1,1.970739290E-2,-9.747169912E-2
3.583042719E0,3.909520507E-1,9.054748341E-3,-1.288969964E-1
3.593021967E0,3.014698327E-1,9.054748341E-3,-1.778991669E-1
3.603062250E0,1.720402092E-1,1.597896684E-3,-2.135855258E-1
3.613041498E0,3.195793182E-2,4.261057824E-3,-2.247707993E-1
3.623081781E0,-8.522115648E-2,9.587380104E-3,-1.970739216E-1
3.633061029E0,-1.555286050E-1,4.261057824E-3,-1.496696621E-1
3.643070795E0,-2.146507949E-1,1.171790902E-2,-8.415589482E-2
3.653019526E0,-2.498045117E-1,1.757686399E-2,-7.456851192E-3
3.663090326E0,-2.833603323E-1,2.716424316E-2,5.645901710E-2
3.673039057E0,-3.323625028E-1,3.195793182E-2,1.049285457E-1
3.683048822E0,-4.101268053E-1,3.941478580E-2,1.203748807E-1
3.692997553E0,-4.964132309E-1,9.108011425E-2,1.017327532E-1
3.703007318E0,-5.448827744E-1,1.635181010E-1,6.018744037E-2
3.712956049E0,-5.305017233E-1,2.167813182E-1,1.012001187E-2
3.722996332E0,-4.490089715E-1,2.322276533E-1,-5.219795927E-2
3.732975580E0,-3.142530024E-1,2.066612989E-1,-1.091896072E-1
3.742985346E0,-1.661812514E-1,1.257012039E-1,-1.608549356E-1
3.752934076E0,-4.261057824E-2,2.982740477E-2,-2.141181529E-1
3.762943842E0,3.621899337E-2,-4.367584363E-2,-2.620550692E-1
3.772892572E0,9.534116834E-2,-8.309062570E-2,-2.647182047E-1
3.782932856E0,1.715075821E-1,-8.841694891E-2,-2.135855258E-1
3.792912104E0,2.780340314E-1,-4.580637068E-2,-1.480717659E-1
3.802952387E0,4.197141826E-1,1.123853996E-1,-7.936219871E-2
3.812901117E0,5.736449361E-1,1.288969964E-1,-9.587380104E-3
3.822941401E0,7.467503548E-1,1.523328125E-1,5.965480953E-2
3.832890131E0,9.102684855E-1,1.326254308E-1,1.065264493E-1
3.842930414E0,9.773801565E-1,6.125270575E-2,9.374327213E-2
3.852909662E0,9.427590370E-1,-1.491370238E-2,1.209075153E-1
3.862949945E0,7.824367285E-1,-1.443433315E-1,4.207794741E-2
3.872929193E0,5.550028086E-1,-1.997370869E-1,-2.982740477E-2
3.882938959E0,3.169161677E-1,-1.613875628E-1,-9.800432622E-2
3.892887690E0,1.475391239E-1,-8.362326026E-2,-1.656486243E-1
3.902927973E0,7.882957160E-2,4.474110901E-2,-2.018676102E-1
3.912907221E0,7.563377917E-2,2.039981484E-1,-2.109223604E-1
3.922916986E0,6.391586363E-2,3.515372574E-1,-1.667138934E-1
3.932865717E0,2.077265643E-2,3.323625028E-1,-8.096009493E-2
3.942875483E0,-3.249056637E-2,2.929477394E-1,1.438106969E-2
3.952824213E0,-8.948221803E-2,1.715075821E-1,8.415589482E-2
3.962864496E0,-1.320927888E-1,2.716424316E-2,1.198422536E-1
3.972782709E0,-1.619201899E-1,-7.616640627E-2,1.145159304E-1
3.982792475E0,-1.720402092E-1,-1.379517466E-1,8.894958347E-2
3.992741205E0,-1.677791476E-1,-1.560612470E-1,4.314320907E-2
4.002781488E0,-1.267664731E-1,-1.294296384E-1,3.195793368E-3
4.012760736E0,-3.941478580E-2,-6.604639441E-2,-1.970739290E-2
4.022770502E0,8.681905270E-2,-1.651159860E-2,-6.924218964E-3
4.032719233E0,1.896170676E-1,-9.054748341E-3,3.462109342E-2
4.042728998E0,2.806971967E-1,-1.917476021E-2,1.006674916E-1
4.052708246E0,3.110572100E-1,-1.544633508E-2,1.496696621E-1
4.062748529E0,2.934803665E-1,5.326322280E-4,1.901497096E-1
4.072727777E0,2.647182047E-1,2.130528912E-3,2.300971150E-1
4.082737543E0,2.279665917E-1,-9.054748341E-3,2.402171344E-1
4.092747309E0,1.763012707E-1,-9.054748341E-3,2.114549875E-1
4.102757074E0,1.150485575E-1,-1.438106969E-2,1.603222936E-1
4.112705805E0,4.687163606E-2,-4.261057824E-2,1.113201380E-1
4.122715570E0,-3.781688958E-2,-7.776430249E-2,6.338323653E-2
4.132664301E0,-1.155811921E-1,-1.299622655E-1,2.982740477E-2
4.142704584E0,-2.077265680E-1,-1.976065636E-1,1.331580617E-2
4.152683832E0,-2.966761589E-1,-2.577939928E-1,1.651159860E-2
4.162724115E0,-3.669835925E-1,-2.913498282E-1,3.036003746E-2
4.172672846E0,-3.989415467E-1,-2.929477394E-1,4.420847446E-2
4.182682611E0,-3.536677957E-1,-2.673813701E-1,4.740426689E-2
4.192631342E0,-2.865561247E-1,-1.049285457E-1,1.331580617E-2
4.202671625E0,-2.167813182E-1,1.917476021E-2,-4.367584363E-2
4.212620356E0,-1.411475390E-1,1.139832959E-1,-1.129180342E-1
4.222630121E0,-7.456851006E-2,1.747033745E-1,-1.736381054E-1
4.232578852E0,-2.290318534E-2,1.890844405E-1,-2.258360684E-1
4.242619135E0,9.587380104E-3,1.379517466E-1,-2.727077007E-1
4.252598383E0,7.989482954E-3,6.977482140E-2,-2.913498282E-1
4.262608149E0,-3.249056637E-2,3.834952042E-2,-2.679139972E-1
4.272556879E0,-1.129180342E-1,5.858954508E-3,-2.359560728E-1
4.282566645E0,-2.306297570E-1,-3.834952042E-2,-2.024002522E-1
4.292484858E0,-3.648530841E-1,-9.693906456E-2,-1.331580579E-1
4.302494623E0,-4.809668958E-1,-1.619201899E-1,-4.793690052E-3
4.312473871E0,-5.448827744E-1,-1.629854590E-1,1.443433315E-1
4.322514154E0,-4.974785149E-1,-1.304948926E-1,2.434129268E-1
4.332493402E0,-2.950782478E-1,-1.320927888E-1,2.450108230E-1
4.342503168E0,6.391586363E-2,-1.214401498E-1,1.816275865E-1
4.352451899E0,5.209143162E-1,2.450108156E-2,6.231797114E-2
4.362461664E0,1.023186564E0,2.119876295E-1,-7.137271762E-2
4.372440912E0,1.501490235E0,4.175836742E-1,-1.890844405E-1
4.382450678E0,1.778991699E0,5.374259353E-1,-2.945456207E-1
4.392460443E0,1.735315800E0,6.226470470E-1,-3.733751774E-1
4.402439692E0,1.382180691E0,5.954828262E-1,-4.026699662E-1
4.412388422E0,8.442220688E-1,4.431500137E-1,-3.366235793E-1
4.422428705E0,2.498045117E-1,2.274339646E-1,-1.810949594E-1
4.432407953E0,-1.906823367E-1,5.752427876E-2,-1.225054078E-2
4.442448236E0,-6.199839115E-1,-1.049285457E-1,2.125202566E-1
4.452396967E0,-8.458199501E-1,-2.013349831E-1,4.197141826E-1
4.462437250E0,-8.516789079E-1,-2.530003190E-1,5.896238685E-1
4.472416498E0,-6.876282096E-1,-2.599245310E-1,6.865629554E-1
4.482426264E0,-4.367584288E-1,-2.109223604E-1,7.121292949E-1
4.492374994E0,-1.842907518E-1,-1.406149119E-1,6.727145314E-1
4.502384760E0,1.384843793E-2,-1.086569726E-1,5.763080716E-1
4.512333490E0,1.209075153E-1,-1.272991002E-1,4.463458061E-1
4.522373774E0,1.358212233E-1,-1.954760253E-1,3.041329980E-1
4.532353022E0,1.027980223E-1,-3.147856593E-1,1.709749401E-1
4.542332270E0,4.261057824E-2,-3.536677957E-1,6.817692518E-2
4.552281000E0,-1.491370238E-2,-3.462109566E-1,-1.171790902E-2
4.562321283E0,-4.261057824E-2,-2.924150825E-1,-6.285060197E-2
4.572300531E0,-3.834952042E-2,-2.221076339E-1,-1.001348570E-1
4.582340815E0,1.118527725E-2,-1.102548689E-1,-1.209075153E-1
4.592320063E0,1.022653878E-1,3.089267015E-2,-1.043959185E-1
4.602360346E0,2.199771106E-1,1.560612470E-1,-7.403588295E-2
4.612309076E0,3.440804183E-1,2.396845073E-1,-3.036003746E-2
4.622349360E0,4.415521026E-1,2.450108230E-1,-4.261057824E-3
4.632328608E0,4.697816372E-1,2.194444835E-1,4.793690052E-3
4.642368891E0,4.202468395E-1,1.906823367E-1,7.456851192E-3
4.652348139E0,2.998719513E-1,1.438107044E-1,1.491370238E-2
4.662388422E0,1.246359423E-1,1.091896072E-1,1.225054078E-2
4.672367670E0,-7.350324839E-2,1.059938148E-1,-2.024002373E-2
4.682346918E0,-2.609897852E-1,1.113201380E-1,-7.030745596E-2
4.692295649E0,-3.808320463E-1,1.283643693E-1,-1.246359423E-1
4.702335932E0,-4.032025933E-1,1.347559541E-1,-1.752360016E-1
4.712315180E0,-3.323625028E-1,1.230380461E-1,-2.082591951E-1
4.722355463E0,-2.151834220E-1,9.374327213E-2,-2.274339646E-1
4.732334711E0,-1.001348570E-1,8.841694891E-2,-2.530003190E-1
4.742344477E0,-2.024002373E-2,8.575379103E-2,-2.790992856E-1
4.752293207E0,-1.810949668E-2,7.936219871E-2,-3.020024598E-1
4.762302973E0,-1.107875034E-1,9.960222989E-2,-3.568635881E-1
4.772251703E0,-2.743056118E-1,1.310275346E-1,-3.957457542E-1
4.782291986E0,-4.554005563E-1,1.384843737E-1,-3.888215125E-1
4.792271235E0,-6.162554622E-1,9.108011425E-2,-2.961435318E-1
4.802311518E0,-6.881608367E-1,8.522115648E-3,-1.310275346E-1
4.812290766E0,-6.604639888E-1,-7.616640627E-2,2.822950855E-2
4.822331049E0,-5.512743592E-1,-1.832254827E-1,1.459412277E-1
4.832310297E0,-3.621899188E-1,-2.929477394E-1,2.450108230E-1
4.842320063E0,-1.422128081E-1,-3.664509654E-1,3.190467060E-1
4.852299311E0,8.042746782E-2,-3.771036267E-1,3.499393761E-1
4.862309076E0,2.599245310E-1,-3.398193717E-1,3.840278387E-1
4.872257807E0,3.323625028E-1,-3.009372056E-1,4.213120937E-1
4.882298090E0,3.067961633E-1,-2.396845073E-1,4.324973822E-1
4.892246820E0,1.443433315E-1,-1.656486243E-1,4.053331316E-1
4.902287104E0,-1.241033077E-1,-5.752427876E-2,3.733751774E-1
4.912266352E0,-4.026699662E-1,2.237055451E-2,3.478088379E-1
4.922306635E0,-6.183860302E-1,4.740426689E-2,3.430151641E-1
4.932224848E0,-6.998787522E-1,-4.793690052E-3,3.595267534E-1
4.942234613E0,-6.482134461E-1,-1.054611802E-1,4.032025933E-1
4.952183344E0,-4.980111420E-1,-1.864212751E-1,4.639226794E-1
4.962223627E0,-3.062635362E-1,-2.269013226E-1,4.937500656E-1
4.972172358E0,-1.342233270E-1,-2.279665917E-1,4.623247683E-1
4.982212641E0,-1.491370238E-2,-1.960086524E-1,3.589941263E-1
4.992191889E0,4.048004746E-2,-1.091896072E-1,1.992044598E-1
5.002232172E0,6.338323653E-2,-7.456851192E-3,2.077265643E-2
5.012180902E0,7.403588295E-2,4.900216311E-2,-1.310275346E-1
5.022190668E0,1.049285457E-1,1.288969964E-1,-2.444781959E-1
5.032139399E0,1.629854590E-1,2.103897333E-1,-2.897519469E-1
5.042179682E0,2.284992188E-1,2.215750068E-1,-2.812298238E-1
5.052128412E0,2.945456207E-1,2.231729031E-1,-2.300971150E-1
5.062168695E0,3.488741219E-1,1.997370869E-1,-1.411475390E-1
5.072147943E0,3.829625845E-1,1.406149119E-1,-4.474110901E-2
5.082188227E0,3.712446690E-1,9.108011425E-2,4.048004746E-2
5.092106440E0,3.147856593E-1,9.747169912E-2,1.022653878E-1
5.102116205E0,2.215750068E-1,1.198422536E-1,1.443433315E-1
5.112064936E0,9.427590668E-2,1.379517466E-1,1.816275865E-1
5.122105219E0,-4.580637068E-2,1.613875628E-1,2.039981484E-1
5.132053949E0,-1.938781291E-1,1.688444167E-1,2.008023560E-1
5.142094233E0,-3.201119602E-1,1.784317940E-1,1.720402092E-1
5.152073481E0,-4.181163013E-1,1.821602285E-1,1.395496428E-1
5.162113764E0,-4.862932265E-1,1.725728363E-1,1.118527651E-1
5.172062494E0,-5.081311464E-1,1.992044598E-1,7.723167539E-2
5.182072260E0,-4.708468914E-1,2.338255495E-1,3.728425503E-2
5.192020990E0,-3.771036267E-1,2.711097896E-1,6.924218964E-3
5.202061274E0,-2.620550692E-1,3.190467060E-1,-2.290318534E-2
5.212040522E0,-1.518001854E-1,3.435477912E-1,-4.740426689E-2
5.222080805E0,-8.149272949E-2,3.195793331E-1,-6.657902896E-2
5.232060053E0,-7.882957160E-2,2.876214087E-1,-7.563377917E-2
5.242069818E0,-1.454086006E-1,2.434129268E-1,-7.030745596E-2
5.252049067E0,-2.833603323E-1,1.651159972E-1,-9.054747969E-2
5.262089350E0,-4.335626364E-1,1.257012039E-1,-1.603222936E-1
5.272068598E0,-5.246427655E-1,1.336906850E-1,-2.545982003E-1
5.282108881E0,-4.948153496E-1,1.592570394E-1,-3.201119602E-1
5.292088129E0,-3.323625028E-1,1.938781291E-1,-3.360909224E-1
5.302128412E0,-1.059938148E-1,1.874865443E-1,-3.163835406E-1
5.312107660E0,6.551376730E-2,1.576591432E-1,-2.897519469E-1
5.322117426E0,2.103897333E-1,5.113269389E-2,-2.663161159E-1
5.332066156E0,2.673813701E-1,-5.219795927E-2,-2.886866629E-1
5.342106440E0,2.732403278E-1,-7.190535218E-2,-3.062635362E-1
5.352085688E0,3.259709179E-1,-5.645901710E-2,-2.961435318E-1
5.362125971E0,4.751079381E-1,-2.876213938E-2,-2.577939928E-1
5.372105219E0,6.402239203E-1,8.522115648E-3,-1.885518134E-1
5.382145502E0,7.227819562E-1,2.396845073E-2,-8.255799860E-2
5.392124750E0,6.801713705E-1,-4.793690052E-3,6.604639441E-2
5.402165033E0,5.209143162E-1,-7.297061384E-2,2.343581766E-1
5.412113764E0,2.972087860E-1,-1.832254827E-1,3.749730885E-1
5.422154047E0,7.669904083E-2,-2.897519469E-1,4.607268870E-1
5.432133295E0,-8.575379103E-2,-3.765709996E-1,4.953479767E-1
5.442173578E0,-1.486043930E-1,-4.138552547E-1,4.500742257E-1
5.452152826E0,-1.246359423E-1,-3.611246645E-1,3.339604139E-1
5.462193110E0,-1.970739290E-2,-2.439455539E-1,1.731054783E-1
5.472172358E0,1.512675583E-1,-1.065264493E-1,1.065264456E-3
5.482212641E0,3.419498801E-1,1.651159860E-2,-1.544633508E-1
5.492161371E0,5.044026971E-1,9.800432622E-2,-2.593919039E-1
5.502171137E0,6.151902080E-1,1.262338310E-1,-3.179814517E-1
5.512119867E0,6.599313021E-1,8.096009493E-2,-3.286340833E-1
5.522129633E0,6.189186573E-1,1.225054078E-2,-3.270362020E-1
5.532078363E0,4.889563918E-1,-2.450108156E-2,-3.131877482E-1
5.542118647E0,3.004045784E-1,-9.054748341E-3,-2.727077007E-1
5.552067377E0,1.091896072E-1,6.924218684E-2,-2.071939409E-1
5.562107660E0,-4.154531285E-2,1.331580579E-1,-1.283643693E-1
5.572056391E0,-1.352885813E-1,1.209075153E-1,-5.060006306E-2
5.582066156E0,-1.869539171E-1,7.243798673E-2,2.183792181E-2
5.592014887E0,-2.274339646E-1,1.864212751E-2,9.693906456E-2
5.602024652E0,-2.716424465E-1,-3.462109342E-2,1.693770438E-1
5.611973383E0,-3.382214606E-1,-7.137271762E-2,1.906823367E-1
5.621983149E0,-4.314320982E-1,-7.403588295E-2,1.608549356E-1
5.631931879E0,-5.363606811E-1,-3.568635881E-2,9.693906456E-2
5.641972162E0,-6.359629035E-1,2.290318534E-2,3.302319720E-2
5.651951410E0,-6.966829300E-1,6.338323653E-2,-2.769687586E-2
5.662022211E0,-7.068029642E-1,7.297061384E-2,-8.681905270E-2
5.671970942E0,-6.567355394E-1,7.936219871E-2,-1.358212233E-1
5.682011225E0,-5.550028086E-1,1.017327532E-1,-1.752360016E-1
5.691990473E0,-4.229099751E-1,1.209075153E-1,-2.109223604E-1
5.702030756E0,-2.833603323E-1,1.326254308E-1,-2.258360684E-1
5.712010004E0,-1.645833552E-1,1.454086006E-1,-2.386192381E-1
5.722019770E0,-9.214537591E-2,1.491370201E-1,-2.577939928E-1
5.731937983E0,-6.444849819E-2,1.006674916E-1,-2.870887816E-1
5.741978266E0,-7.723167539E-2,1.065264456E-2,-3.446130455E-1
5.751957514E0,-1.049285457E-1,-2.822950855E-2,-4.127899706E-1
5.761997797E0,-1.070590764E-1,-3.195793368E-3,-4.756405652E-1
5.771977045E0,-5.273059011E-2,5.273059011E-2,-4.830974340E-1
5.782017328E0,1.102548689E-1,1.203748807E-1,-3.834952116E-1
5.791996576E0,3.451456726E-1,1.033306494E-1,-1.699096859E-1
5.802006342E0,5.406216979E-1,3.834952042E-2,9.001484513E-2
5.811985590E0,6.609966159E-1,9.587380290E-2,2.631203234E-1
5.822025873E0,7.062703371E-1,3.888215125E-2,3.014698327E-1
5.831974604E0,6.860303283E-1,-6.444849819E-2,2.641855776E-1
5.842014887E0,5.597964525E-1,-1.102548689E-1,2.327602804E-1
5.851994135E0,3.147856593E-1,-1.246359423E-1,1.864212751E-1
5.862034418E0,-4.793690052E-3,-8.202536404E-2,9.534116834E-2
5.872013666E0,-3.094593287E-1,-1.384843793E-2,-1.065264456E-3
5.882023432E0,-5.273059011E-1,4.740426689E-2,-6.018744037E-2
5.891972162E0,-6.247776151E-1,7.243798673E-2,-3.781688958E-2
5.901981928E0,-6.322344542E-1,4.154531285E-2,4.953479767E-2
5.911930658E0,-6.098638773E-1,-1.810949668E-2,1.715075821E-1
5.921940424E0,-5.805691481E-1,-6.924218684E-2,2.881540358E-1
5.931889154E0,-5.331648588E-1,-1.230380461E-1,3.882888854E-1
5.941929438E0,-4.569984376E-1,-1.858886480E-1,4.628573954E-1
5.951908686E0,-3.627225459E-1,-2.354234457E-1,5.038700700E-1
5.961948969E0,-2.583266199E-1,-2.375539690E-1,4.830974340E-1
5.971928217E0,-1.587243974E-1,-1.800296903E-1,3.920173049E-1
5.981968500E0,-4.261057824E-2,-5.912217870E-2,2.540655732E-1
5.991947748E0,1.017327532E-1,2.024002373E-2,1.038632840E-1
6.001926996E0,2.727077007E-1,9.906959534E-2,-1.171790902E-2
6.011875727E0,4.410194755E-1,1.619201899E-1,-9.906959534E-2
6.021916010E0,5.629922748E-1,1.528654546E-1,-1.720402092E-1
6.031895258E0,6.402239203E-1,1.251685768E-1,-2.098570913E-1
6.041935541E0,6.657902598E-1,1.043959185E-1,-1.832254827E-1
6.051884272E0,6.498113275E-1,8.628641814E-2,-1.187769845E-1
6.061924555E0,5.965480804E-1,1.075917110E-1,-4.953479767E-2
6.071873285E0,5.267732739E-1,1.528654546E-1,-1.597896684E-3
6.081913568E0,4.463458061E-1,1.869539171E-1,3.728425503E-2
6.091892817E0,3.664509654E-1,2.045307755E-1,6.231797114E-2
6.101933100E0,2.689792812E-1,1.869539171E-1,7.563377917E-2
6.111912348E0,1.624528319E-1,1.336906850E-1,8.628641814E-2
6.121922113E0,3.781688958E-2,7.669904083E-2,8.841694891E-2
6.131870844E0,-9.853696078E-2,3.249056637E-2,8.575379103E-2
6.141911127E0,-2.402171344E-1,1.597896684E-3,8.735168725E-2
6.151890375E0,-3.675162494E-1,-6.498113275E-2,9.001484513E-2
6.161930658E0,-4.601942301E-1,-8.948221803E-2,8.042746782E-2
6.171909906E0,-5.289037824E-1,-7.084008306E-2,5.379585549E-2
6.181950190E0,-5.629922748E-1,-2.024002373E-2,3.728425596E-3
6.191929438E0,-5.368933082E-1,7.137271762E-2,-5.539375171E-2
6.201969721E0,-4.585963488E-1,1.470064968E-1,-1.363538504E-1
6.211918451E0,-3.430151641E-1,1.800296903E-1,-2.205097377E-1
6.221958735E0,-2.434129268E-1,1.667138934E-1,-2.822950780E-1
6.231937983E0,-1.310275346E-1,1.012001261E-1,-3.557983339E-1
6.241978266E0,-4.846953228E-2,5.858954415E-2,-4.351605177E-1
6.251898691E0,5.326322280E-3,6.711166352E-2,-5.305017233E-1
6.261938974E0,2.130528912E-2,8.628641814E-2,-6.524744630E-1
6.271918222E0,2.929477207E-2,1.603222936E-1,-7.259777188E-1
6.281897471E0,6.924218964E-3,2.854908705E-1,-6.551376581E-1
6.291876719E0,-5.166532472E-2,4.223773479E-1,-4.974785149E-1
6.301886484E0,-4.953479767E-2,5.113269091E-1,-3.179814517E-1
6.311835215E0,1.107875034E-1,3.238403797E-1,-8.468852192E-2
6.321875498E0,3.360909224E-1,-9.001484513E-2,2.284992188E-1
6.331854746E0,4.463458061E-1,-4.580637217E-1,5.406216979E-1
6.341864512E0,3.707120419E-1,-5.629922748E-1,7.499461770E-1
6.351813242E0,1.709749401E-1,-4.324973822E-1,8.058725595E-1
6.361853525E0,-2.769687586E-2,-2.093244642E-1,6.993461251E-1
6.371802256E0,-1.171790883E-1,-1.970739290E-2,4.804342687E-1
6.381842539E0,-1.086569726E-1,1.251685768E-1,2.146507949E-1
6.391791269E0,-7.030745596E-2,1.784317940E-1,-5.858954508E-3
6.401801035E0,-5.219795927E-2,1.518001854E-1,-1.416801661E-1
6.411780283E0,-7.137271762E-2,8.948221803E-2,-2.024002522E-1
6.421759531E0,-1.267664731E-1,-2.769687586E-2,-1.858886480E-1
6.431738779E0,-2.093244642E-1,-1.944107562E-1,-1.017327532E-1
6.441779062E0,-3.105245829E-1,-3.627225459E-1,1.917476021E-2
6.451758310E0,-3.957457542E-1,-5.123922229E-1,1.139832959E-1
6.461798594E0,-4.596616030E-1,-6.391586661E-1,1.645833552E-1
6.471747324E0,-4.868258536E-1,-7.041398287E-1,1.938781291E-1
6.481787607E0,-4.703142643E-1,-6.652576327E-1,2.087918371E-1
6.491766855E0,-4.426173866E-1,-5.709817410E-1,1.725728363E-1
6.501776621E0,-3.936152160E-1,-4.415521026E-1,1.257012039E-1
6.511755869E0,-3.169161677E-1,-3.227751255E-1,5.219795927E-2
6.521796152E0,-2.125202566E-1,-1.938781291E-1,-1.225054078E-2
6.531744883E0,-7.190535218E-2,-7.403588295E-2,-5.006742850E-2
6.541754648E0,8.255799860E-2,0.000000000E0,-4.048004746E-2
6.551733896E0,2.348908186E-1,2.343581803E-2,-5.858954508E-3
6.561774180E0,3.499393761E-1,9.054748341E-3,1.917476021E-2
6.571722910E0,3.957457542E-1,-1.065264456E-2,4.527373984E-2
6.581763193E0,3.717772961E-1,-7.030745596E-2,7.030745596E-2
6.591742441E0,2.780340314E-1,-1.416801661E-1,8.735168725E-2
6.601752207E0,1.347559541E-1,-1.837581247E-1,9.534116834E-2
6.611731455E0,-3.408846259E-2,-2.018676102E-1,7.882957160E-2
6.621741221E0,-2.178465873E-1,-2.071939409E-1,3.302319720E-2
6.631689951E0,-3.904194236E-1,-1.928128600E-1,-3.302319720E-2
6.641730234E0,-5.310343504E-1,-1.773665249E-1,-9.587380290E-2
6.651678965E0,-6.066681147E-1,-1.816275865E-1,-1.384843737E-1
6.661688730E0,-6.412891746E-1,-1.555286050E-1,-1.597896665E-1
6.671667978E0,-6.135923266E-1,-1.379517466E-1,-1.725728363E-1
6.681677744E0,-5.193164349E-1,-1.155811921E-1,-1.581917703E-1
6.691595957E0,-3.888215125E-1,-1.134506613E-1,-1.491370201E-1
6.701605722E0,-2.551308274E-1,-1.331580579E-1,-1.693770438E-1
6.711584971E0,-1.379517466E-1,-1.304948926E-1,-2.087918371E-1
6.721594736E0,-4.048004746E-2,-1.086569726E-1,-2.700445354E-1
6.731573984E0,2.077265643E-2,-2.716424316E-2,-3.653857112E-1
6.741614267E0,4.793690145E-2,1.411475390E-1,-4.420847595E-1
6.751593515E0,4.846953228E-2,3.115898669E-1,-4.495415986E-1
6.761603281E0,7.776430249E-2,3.195793331E-1,-3.680488765E-1
6.771582529E0,1.736381054E-1,1.683117896E-1,-2.338255495E-1
6.781622812E0,3.994741738E-1,5.060006306E-2,-1.432780623E-1
6.791571543E0,7.515440583E-1,2.769687586E-2,-1.107875034E-1
6.801581308E0,1.145691872E0,1.118527725E-2,-4.048004746E-2
6.811560556E0,1.496163964E0,-1.491370238E-2,1.038632840E-1
6.821600840E0,1.690042019E0,-7.989483327E-2,2.833603323E-1
6.831549570E0,1.658616781E0,-1.214401498E-1,3.036003709E-1
6.841559336E0,1.414671183E0,6.551376730E-2,1.869539171E-1
6.851508066E0,1.062601328E0,3.382214606E-1,1.597896591E-2
6.861548349E0,7.185208797E-1,4.990763962E-1,-1.496696621E-1
6.871527597E0,4.591289759E-1,4.857605994E-1,-2.146507949E-1
6.881567881E0,2.860234976E-1,3.099919558E-1,-1.491370201E-1
6.891516611E0,1.533980817E-1,7.989483327E-2,4.846953228E-2
6.901526377E0,8.522115648E-3,-1.629854590E-1,3.009372056E-1
6.911505625E0,-1.763012707E-1,-3.158509135E-1,5.038700700E-1
6.921515390E0,-4.159857631E-1,-3.824299276E-1,6.215817928E-1
6.931525156E0,-6.604639888E-1,-3.760383427E-1,6.663229465E-1
6.941565439E0,-8.463526368E-1,-3.254382908E-1,6.306365728E-1
6.951514170E0,-9.225190282E-1,-2.460760921E-1,5.336974859E-1
6.961523935E0,-8.745821118E-1,-1.502022892E-1,4.117247164E-1
6.971503183E0,-7.291735411E-1,-1.022653878E-1,2.870887816E-1
6.981543467E0,-5.278385282E-1,-8.309062570E-2,1.842907518E-1
6.991492197E0,-3.302319944E-1,-1.113201380E-1,1.230380461E-1
7.001501963E0,-1.608549356E-1,-1.571265012E-1,1.038632840E-1
7.011450693E0,-5.965480953E-2,-2.231729031E-1,1.118527651E-1
7.021490976E0,-2.183792181E-2,-2.711097896E-1,1.352885813E-1
7.031470224E0,-2.450108156E-2,-2.503371537E-1,1.294296384E-1
7.041479990E0,-4.048004746E-2,-1.853560209E-1,8.735168725E-2
7.051428721E0,-4.740426689E-2,-1.187769845E-1,3.089267015E-2
7.061469004E0,-3.994741663E-2,-6.231797114E-2,-2.183792181E-2
7.071448252E0,-1.970739290E-2,-1.970739290E-2,-6.072007492E-2
7.081458017E0,2.024002373E-2,1.704423130E-2,-9.960222989E-2
7.091437265E0,6.444849819E-2,3.036003746E-2,-1.251685768E-1
7.101447031E0,9.853696078E-2,2.716424316E-2,-1.438107044E-1
7.111395762E0,1.177117229E-1,3.249056637E-2,-1.475391239E-1
7.121436045E0,1.145159304E-1,4.314320907E-2,-1.480717659E-1
7.131415293E0,8.362326026E-2,4.633900523E-2,-1.533980817E-1
7.141394541E0,3.036003746E-2,4.846953228E-2,-1.587243974E-1
7.151373789E0,-2.929477207E-2,5.379585549E-2,-1.651159972E-1
7.161414072E0,-8.575379103E-2,1.118527725E-2,-1.704423130E-1
7.171362803E0,-1.235706806E-1,-7.563377917E-2,-1.747033745E-1
7.181372568E0,-1.384843737E-1,-4.793690145E-2,-1.603222936E-1
7.191351816E0,-1.443433315E-1,-5.219795927E-2,-1.539307088E-1
7.201392099E0,-1.326254308E-1,-9.480853379E-2,-1.502022892E-1
7.211371347E0,-1.081243455E-1,-1.022653878E-1,-1.592570394E-1
7.221381113E0,-6.551376730E-2,-6.870955974E-2,-1.794970632E-1
7.231329844E0,8.522115648E-3,-2.450108156E-2,-2.183792144E-1
7.241370127E0,8.681905270E-2,2.024002373E-2,-2.806971967E-1
7.251318857E0,1.400822699E-1,1.017327532E-1,-3.398193717E-1
7.261359140E0,1.624528319E-1,1.741707325E-1,-3.510046303E-1
7.271338388E0,1.374191195E-1,1.763012707E-1,-2.956108749E-1
7.281317637E0,9.800432622E-2,1.842907518E-1,-1.395496428E-1
7.291296885E0,8.788431436E-2,1.837581247E-1,-1.225054078E-2
7.301337168E0,1.400822699E-1,2.050634027E-1,4.367584363E-2
7.311285898E0,2.854908705E-1,2.183792144E-1,-9.587380104E-3
7.321295664E0,5.129248500E-1,1.933455020E-1,-1.182443574E-1
7.331213877E0,7.360977530E-1,1.459412277E-1,-1.826928556E-1
7.341223642E0,8.479505181E-1,1.597896591E-2,-1.906823367E-1
7.351202890E0,8.042746782E-1,-1.166464612E-1,-1.672465205E-1
7.361212656E0,6.221144199E-1,-2.189118415E-1,-1.198422536E-1
7.371161387E0,3.286340833E-1,-2.897519469E-1,-7.030745596E-2
7.381201670E0,-2.183792181E-2,-2.748382390E-1,-4.633900523E-2
7.391180918E0,-3.797667921E-1,-2.103897333E-1,-4.207794741E-2
7.401160166E0,-6.956176758E-1,-1.155811921E-1,-1.970739290E-2
7.411139414E0,-8.985505700E-1,-4.207794741E-2,3.728425503E-2
7.421118662E0,-9.709885716E-1,-2.609897964E-2,1.091896072E-1
7.431097910E0,-9.283779860E-1,-1.864212751E-2,1.928128600E-1
7.441138193E0,-7.984157205E-1,-4.687163606E-2,2.615224123E-1
7.451086924E0,-6.593986750E-1,-9.534116834E-2,2.956108749E-1
7.461127207E0,-4.607268870E-1,-1.432780623E-1,2.961435318E-1
7.471106455E0,-2.540655732E-1,-1.747033745E-1,2.716424465E-1
7.481116221E0,-8.575379103E-2,-1.992044598E-1,2.391518652E-1
7.491034433E0,2.609897964E-2,-2.556634545E-1,2.125202566E-1
7.501044199E0,6.338323653E-2,-3.456783295E-1,1.938781291E-1
7.511023447E0,3.568635881E-2,-3.978762627E-1,1.890844405E-1
7.521063730E0,-3.675162420E-2,-4.340952635E-1,1.624528319E-1
7.531012461E0,-1.043959185E-1,-4.058657587E-1,1.203748807E-1
7.541022226E0,-1.342233270E-1,-3.078614175E-1,8.575379103E-2
7.551001474E0,-1.065264493E-1,-1.645833552E-1,6.711166352E-2
7.561011240E0,-1.810949668E-2,-1.171790902E-2,4.580637068E-2
7.570990488E0,1.070590764E-1,9.693906456E-2,1.225054078E-2
7.581000254E0,2.316950262E-1,1.603222936E-1,-1.225054078E-2
7.590948984E0,3.222424984E-1,1.965412945E-1,-3.036003746E-2
7.600989267E0,3.664509654E-1,2.018676102E-1,-3.728425503E-2
7.610968515E0,3.515372574E-1,1.752360016E-1,-5.592638254E-2
7.620947763E0,2.801645398E-1,1.539307088E-1,-9.001484513E-2
7.630927012E0,1.661812514E-1,1.246359423E-1,-1.363538504E-1
7.640967295E0,2.290318534E-2,7.936219871E-2,-1.715075821E-1
7.650916025E0,-1.272991002E-1,1.917476021E-2,-1.986718178E-1
7.660986826E0,-2.849582434E-1,-4.580637068E-2,-2.130528986E-1
7.670905039E0,-4.239752591E-1,-7.936219871E-2,-2.141181529E-1
7.680914805E0,-5.166532397E-1,-9.214537591E-2,-2.045307755E-1
7.690894053E0,-5.390238166E-1,-9.587380290E-2,-1.800296903E-1
7.700903818E0,-5.012069345E-1,-1.107875034E-1,-1.294296384E-1
7.710883066E0,-4.138552547E-1,-1.358212233E-1,-7.882957160E-2
7.720923349E0,-2.908172011E-1,-1.182443574E-1,-4.261057824E-2
7.730872080E0,-1.688444167E-1,-7.669904083E-2,-3.941478580E-2
7.740881846E0,-8.575379103E-2,9.054748341E-3,-8.628641814E-2
7.750861094E0,-2.609897964E-2,1.773665249E-1,-1.486043930E-1
7.760870859E0,2.024002373E-2,3.382214606E-1,-1.725728363E-1
7.770819590E0,3.941478580E-2,4.330300093E-1,-7.989483327E-2
7.780859873E0,4.048004746E-2,4.474110603E-1,1.635181010E-1
7.790808603E0,6.977482140E-2,3.073287904E-1,4.191815555E-1
7.800818369E0,1.502022892E-1,2.119876295E-1,4.793690145E-1
7.810767099E0,2.796319127E-1,1.427454352E-1,3.701793849E-1
7.820807383E0,4.809668958E-1,4.793690145E-2,1.225054115E-1
7.830786631E0,7.424893379E-1,1.065264456E-3,-1.278317273E-1
7.840765879E0,9.629990458E-1,-3.728425596E-3,-2.828277051E-1
7.850745127E0,1.073786616E0,3.142530099E-2,-3.339604139E-1
7.860785410E0,1.072721362E0,9.001484513E-2,-3.249056637E-1
7.870734140E0,9.448895454E-1,1.166464612E-1,-2.918824553E-1
7.880743906E0,6.716492176E-1,1.294296384E-1,-2.604571581E-1
7.890692637E0,2.588592768E-1,1.235706806E-1,-1.906823367E-1
7.900732920E0,-2.050634027E-1,7.989483327E-2,-4.900216311E-2
7.910712168E0,-5.965480804E-1,2.716424316E-2,1.443433315E-1
7.920691416E0,-8.479505181E-1,-2.769687586E-2,3.195793331E-1
7.930670664E0,-9.395632744E-1,-8.255799860E-2,4.111920893E-1
7.940680430E0,-8.873652816E-1,-1.326254308E-1,4.298342168E-1
7.950659678E0,-7.339671850E-1,-1.502022892E-1,3.818973005E-1
7.960699961E0,-5.320996046E-1,-1.624528319E-1,2.966761589E-1
7.970648691E0,-3.440804183E-1,-1.576591432E-1,1.965412945E-1
7.980688974E0,-1.890844405E-1,-1.608549356E-1,1.214401498E-1
7.990637705E0,-9.800432622E-2,-1.518001854E-1,7.403588295E-2
8.000647471E0,-6.604639441E-2,-1.709749401E-1,4.793690145E-2
8.010626719E0,-7.776430249E-2,-2.237055302E-1,2.769687586E-2
8.020667002E0,-1.107875034E-1,-2.434129268E-1,1.438106969E-2
8.030615732E0,-1.283643693E-1,-2.114549875E-1,1.757686399E-2
8.040625498E0,-1.134506613E-1,-1.752360016E-1,6.391586736E-3
8.050574228E0,-4.474110901E-2,-1.326254308E-1,-2.396845073E-2
8.060583994E0,5.699164793E-2,-1.182443574E-1,-4.527373984E-2
8.070563242E0,1.651159972E-1,-1.075917110E-1,-5.166532472E-2
8.080603525E0,2.444781959E-1,-8.202536404E-2,-3.675162420E-2
8.090552256E0,2.828277051E-1,-6.444849819E-2,-1.970739290E-2
8.100562021E0,2.759034932E-1,-8.948221803E-2,2.130528912E-3
8.110541269E0,2.199771106E-1,-1.235706806E-1,2.130528912E-2
8.120581553E0,1.214401498E-1,-1.326254308E-1,3.834952042E-2
8.130530283E0,-2.130528912E-3,-1.406149119E-1,5.219795927E-2
8.140570566E0,-1.533980817E-1,-1.533980817E-1,6.977482140E-2
8.150549814E0,-3.174487948E-1,-1.528654546E-1,7.084008306E-2
8.160529062E0,-4.703142643E-1,-1.150485575E-1,7.243798673E-2
8.170508310E0,-5.837649107E-1,-6.870955974E-2,8.575379103E-2
8.180548594E0,-6.386260390E-1,-3.834952042E-2,1.027980223E-1
8.190497324E0,-6.231797338E-1,-1.331580617E-2,1.358212233E-1
8.200507090E0,-5.203816891E-1,2.609897964E-2,1.731054783E-1
8.210486338E0,-3.344930410E-1,6.125270575E-2,2.013349831E-1
8.220465586E0,-1.107875034E-1,1.123853996E-1,1.901497096E-1
8.230444834E0,9.001484513E-2,1.981391907E-1,1.177117229E-1
8.240485117E0,2.386192381E-1,3.382214606E-1,-2.343581803E-2
8.250464365E0,3.217098713E-1,4.356931746E-1,-1.709749401E-1
8.260474131E0,3.771036267E-1,5.283711553E-1,-3.818973005E-1
8.270422861E0,3.845604658E-1,5.949501991E-1,-5.491438508E-1
8.280463144E0,3.360909224E-1,6.135923266E-1,-5.816344023E-1
8.290411875E0,2.657834888E-1,6.072007418E-1,-5.038700700E-1
8.300421640E0,2.199771106E-1,5.411543250E-1,-3.984089196E-1
8.310370371E0,2.178465873E-1,4.452805519E-1,-3.568635881E-1
8.320410654E0,2.705771625E-1,3.430151641E-1,-3.664509654E-1
8.330389902E0,3.414172530E-1,2.322276533E-1,-3.611246645E-1
8.340369150E0,3.936152160E-1,4.154531285E-2,-2.886866629E-1
8.350348398E0,3.893541694E-1,-2.157160491E-1,-1.576591432E-1
8.360388681E0,2.897519469E-1,-4.314320982E-1,-5.006742850E-2
8.370337412E0,1.725728363E-1,-4.330300093E-1,9.587380104E-3
8.380377695E0,9.480853379E-2,-3.328951299E-1,1.970739290E-2
8.390326426E0,7.510114461E-2,-1.922802329E-1,1.065264456E-3
8.400336191E0,8.309062570E-2,-4.793690052E-3,-1.278317347E-2
8.410315439E0,7.563377917E-2,2.061286718E-1,1.917476021E-2
8.420355722E0,4.740426689E-2,3.600593805E-1,9.161274135E-2
8.430334971E0,-9.587380104E-3,4.250405133E-1,1.794970632E-1
8.440314219E0,-1.129180342E-1,3.840278387E-1,2.860234976E-1
8.450232431E0,-2.530003190E-1,2.514024079E-1,4.095941782E-1
8.460242197E0,-4.010720551E-1,5.539375171E-2,5.320996046E-1
8.470221445E0,-5.241101384E-1,-1.518001854E-1,6.322344542E-1
8.480261728E0,-6.045376062E-1,-3.014698327E-1,6.897587180E-1
8.490240976E0,-6.258428693E-1,-3.664509654E-1,6.966829300E-1
8.500220224E0,-6.002765298E-1,-3.946804702E-1,6.508765817E-1
8.510199472E0,-5.177185535E-1,-3.249056637E-1,5.534048676E-1
8.520239756E0,-3.952131271E-1,-2.178465873E-1,4.079962969E-1
8.530188486E0,-2.348908186E-1,-1.171790883E-1,2.482066154E-1
8.540228769E0,-6.711166352E-2,-5.219795927E-2,7.776430249E-2
8.550208017E0,1.006674916E-1,-1.171790902E-2,-7.456851006E-2
8.560217783E0,2.439455539E-1,1.757686399E-2,-1.800296903E-1
8.570197031E0,3.499393761E-1,4.420847446E-2,-2.226402760E-1
8.580237314E0,4.154531360E-1,5.912217870E-2,-2.434129268E-1
8.590216562E0,4.426173866E-1,6.338323653E-2,-2.482066154E-1
8.600256846E0,4.420847595E-1,4.687163606E-2,-2.620550692E-1
8.610205576E0,4.111920893E-1,3.515372798E-2,-2.636529505E-1
8.620245859E0,3.382214606E-1,3.621899337E-2,-2.530003190E-1
8.630225107E0,2.173139453E-1,5.486112088E-2,-2.226402760E-1
8.640234873E0,6.285060197E-2,8.042746782E-2,-1.848233789E-1
8.650183603E0,-1.177117229E-1,1.012001261E-1,-1.533980817E-1
8.660223887E0,-3.025351167E-1,1.347559541E-1,-1.422128081E-1
8.670203135E0,-4.415521026E-1,1.736381054E-1,-1.358212233E-1
8.680182383E0,-5.608617067E-1,2.125202566E-1,-1.166464612E-1
8.690161631E0,-5.997439027E-1,2.093244642E-1,-6.285060197E-2
8.700140879E0,-5.597964525E-1,1.491370201E-1,1.597896591E-2
8.710120127E0,-4.687163532E-1,7.669904083E-2,1.017327532E-1
8.720160410E0,-3.573962152E-1,2.343581803E-2,1.608549356E-1
8.730109140E0,-2.524676621E-1,-5.858954508E-3,1.704423130E-1
8.740118906E0,-1.427454352E-1,-2.450108156E-2,1.299622655E-1
8.750098154E0,-3.036003746E-2,-4.740426689E-2,5.486112088E-2
8.760138437E0,7.616640627E-2,-2.183792181E-2,-5.273059011E-2
8.770087168E0,1.507349163E-1,9.001484513E-2,-1.885518134E-1
8.780127451E0,1.986718178E-1,2.625876963E-1,-3.179814517E-1
8.790076181E0,2.455434501E-1,4.340952635E-1,-4.032025933E-1
8.800085947E0,3.296993375E-1,5.390238166E-1,-3.973436356E-1
8.810065195E0,4.351605177E-1,5.747101903E-1,-2.593919039E-1
8.820105478E0,5.374259353E-1,4.894890189E-1,-9.480853379E-2
8.830054209E0,6.199839115E-1,2.492718846E-1,6.338323653E-2
8.840063974E0,6.189186573E-1,-1.502022892E-1,2.077265680E-1
8.850012705E0,4.900216460E-1,-4.500742257E-1,3.174487948E-1
8.860022471E0,2.407497615E-1,-5.139901042E-1,2.982740402E-1
8.870001719E0,-3.302319720E-2,-3.435477912E-1,1.917476058E-1
8.880042002E0,-2.545982003E-1,-1.731054783E-1,7.350324839E-2
8.889990732E0,-3.579288721E-1,-2.130528912E-3,2.876213938E-2
8.900000498E0,-3.520699143E-1,1.219727769E-1,9.853696078E-2
8.909979746E0,-2.748382390E-1,1.496696621E-1,2.290318608E-1
8.920020029E0,-1.821602285E-1,1.374191195E-1,3.531351686E-1
8.929968760E0,-1.246359423E-1,1.123853996E-1,4.213120937E-1
8.940009043E0,-1.251685768E-1,7.989483327E-2,4.122573435E-1
8.949988291E0,-1.869539171E-1,3.515372798E-2,3.584614992E-1
8.959998056E0,-2.913498282E-1,-2.929477207E-2,2.886866629E-1
8.969946787E0,-4.122573435E-1,-1.368864775E-1,2.274339646E-1
8.979987070E0,-4.964132309E-1,-2.391518652E-1,1.629854590E-1
8.989966318E0,-5.342301130E-1,-2.679139972E-1,1.107875034E-1
8.999945566E0,-5.145227313E-1,-2.380866110E-1,4.740426689E-2
9.009924814E0,-4.415521026E-1,-1.949433982E-1,-4.261057824E-3
9.019934580E0,-3.174487948E-1,-1.320927888E-1,-3.036003746E-2
9.029913828E0,-1.512675583E-1,-4.793690145E-2,-5.326322280E-3
9.039954111E0,5.379585549E-2,4.633900523E-2,5.006742850E-2
9.049933359E0,2.796319127E-1,1.177117229E-1,8.468852192E-2
9.059943125E0,5.049353242E-1,1.715075821E-1,1.012001261E-1
9.069891855E0,6.588660479E-1,1.869539171E-1,1.081243455E-1
9.079932138E0,7.930893898E-1,1.784317940E-1,1.107875034E-1
9.089880869E0,8.442220688E-1,1.640507281E-1,1.049285457E-1
9.099921152E0,7.994809747E-1,1.496696621E-1,1.155811921E-1
9.109900400E0,6.785734296E-1,1.161138266E-1,1.400822699E-1
9.119879648E0,4.948153496E-1,7.084008306E-2,1.576591432E-1
9.129858896E0,2.764361203E-1,4.154531285E-2,1.443433315E-1
9.139899180E0,4.101268202E-2,4.101268202E-2,1.001348570E-1
9.149878428E0,-1.757686287E-1,8.788431436E-2,3.941478580E-2
9.159857676E0,-3.611246645E-1,1.288969964E-1,-2.450108156E-2
9.169836924E0,-4.985437691E-1,1.134506613E-1,-6.977482140E-2
9.179846689E0,-5.725796223E-1,1.235706806E-1,-9.374327213E-2
9.189825937E0,-6.098638773E-1,1.123853996E-1,-9.480853379E-2
9.199866221E0,-6.008091569E-1,9.374327213E-2,-6.285060197E-2
9.209845469E0,-5.587311983E-1,9.161274135E-2,-3.249056637E-2
9.219885752E0,-4.772384763E-1,1.209075153E-1,-1.597896591E-2
9.229834482E0,-3.691141307E-1,1.257012039E-1,-1.917476021E-2
9.239844248E0,-2.572613657E-1,1.091896072E-1,-4.740426689E-2
9.249792978E0,-1.752360016E-1,8.735168725E-2,-1.209075153E-1
9.259833262E0,-1.656486243E-1,1.113201380E-1,-2.396845073E-1
9.269812510E0,-2.215750068E-1,2.332929224E-1,-3.382214606E-1
9.279822275E0,-2.769687474E-1,4.303668439E-1,-3.360909224E-1
9.289801523E0,-2.588592768E-1,4.841626883E-1,-2.173139453E-1
9.299841806E0,-1.294296384E-1,3.771036267E-1,-1.651159860E-2
9.309821055E0,1.187769845E-1,1.416801661E-1,1.352885813E-1
9.319830820E0,4.591289759E-1,-8.468852192E-2,2.263686955E-1
9.329840586E0,7.749798894E-1,-3.440804183E-1,3.078614175E-1
9.339880869E0,1.000815988E0,-4.894890189E-1,3.536677957E-1
9.349829599E0,1.087102413E0,-4.948153496E-1,3.062635362E-1
9.359839365E0,1.082841277E0,-3.643204570E-1,2.039981484E-1
9.369818613E0,1.029045463E0,-1.885518134E-1,6.817692518E-2
9.379828379E0,9.342369437E-1,-1.970739290E-2,-8.841694891E-2
9.389807627E0,7.968178391E-1,1.257012039E-1,-1.960086524E-1
9.399847910E0,6.215817928E-1,2.226402760E-1,-2.247707993E-1
9.409796640E0,4.388889670E-1,2.370213419E-1,-1.917476058E-1
9.419836924E0,2.588592768E-1,1.912149638E-1,-1.139832959E-1
9.429785654E0,8.948221803E-2,1.139832959E-1,-2.077265643E-2
9.439795420E0,-5.645901710E-2,3.195793368E-3,6.391586363E-2
9.449774668E0,-1.773665249E-1,-1.129180342E-1,1.272991002E-1
9.459784433E0,-2.524676621E-1,-2.119876295E-1,1.528654546E-1
9.469733164E0,-2.982740402E-1,-2.908172011E-1,1.320927888E-1
9.479773447E0,-3.099919558E-1,-3.323625028E-1,8.149272949E-2
9.489722178E0,-2.854908705E-1,-3.536677957E-1,8.522115648E-3
9.499762461E0,-2.269013226E-1,-2.998719513E-1,-6.178534031E-2
9.509711191E0,-1.619201899E-1,-2.269013226E-1,-1.203748807E-1
9.519720957E0,-8.681905270E-2,-1.422128081E-1,-1.709749401E-1
9.529700205E0,-1.012001187E-2,-3.728425503E-2,-2.098570913E-1
9.539709971E0,7.563377917E-2,4.900216311E-2,-2.428802997E-1
9.549658701E0,1.581917703E-1,1.288969964E-1,-2.588592768E-1
9.559698984E0,2.279665917E-1,1.715075821E-1,-2.370213419E-1
9.569647715E0,2.796319127E-1,1.789644361E-1,-1.970739216E-1
9.579657480E0,3.062635362E-1,1.699096859E-1,-1.560612470E-1
9.589636728E0,3.020024598E-1,1.427454352E-1,-1.193096191E-1
9.599677012E0,2.567287385E-1,7.243798673E-2,-9.108011425E-2
9.609656260E0,1.571265012E-1,-5.326322280E-4,-7.350324839E-2
9.619666025E0,2.556634694E-2,-5.752427876E-2,-4.580637068E-2
9.629614756E0,-1.294296384E-1,-1.406149119E-1,-2.929477207E-2
9.639655039E0,-3.142530024E-1,-2.231729031E-1,-3.568635881E-2
9.649603769E0,-5.129248500E-1,-2.743056118E-1,-6.764429063E-2
9.659674570E0,-7.046724558E-1,-2.727077007E-1,-1.214401498E-1
9.669623301E0,-8.692557812E-1,-2.316950262E-1,-1.624528319E-1
9.679633066E0,-9.709885716E-1,-1.789644361E-1,-1.821602285E-1
9.689581797E0,-9.821738005E-1,-1.448759735E-1,-1.821602285E-1
9.699622080E0,-9.012137055E-1,-1.155811921E-1,-1.715075821E-1
9.709570810E0,-7.387608886E-1,-8.948221803E-2,-1.342233270E-1
9.719580576E0,-5.139901042E-1,-6.711166352E-2,-9.161274135E-2
9.729529306E0,-2.514024079E-1,-2.929477207E-2,-6.285060197E-2
9.739569590E0,2.077265643E-2,6.018744037E-2,-7.776430249E-2
9.749548838E0,2.567287385E-1,1.805623323E-1,-1.400822699E-1
9.759558603E0,4.250405133E-1,2.753708661E-1,-2.482066154E-1
9.769537851E0,5.416869521E-1,3.515372574E-1,-3.350256681E-1
9.779578135E0,5.938849449E-1,3.339604139E-1,-3.142530024E-1
9.789526865E0,6.114618182E-1,1.821602285E-1,-1.789644361E-1
9.799536631E0,6.279733777E-1,-1.491370238E-2,-3.462109342E-2
9.809485361E0,7.078682184E-1,-2.077265680E-1,1.704423130E-2
9.819525644E0,8.106662631E-1,-4.388889670E-1,-7.989482954E-3
9.829504892E0,8.633968234E-1,-6.253102422E-1,-7.403588295E-2
9.839514658E0,8.884305358E-1,-6.503439546E-1,-1.571265012E-1
9.849463388E0,9.049421549E-1,-6.359629035E-1,-1.842907518E-1
9.859503672E0,9.225190282E-1,-6.519418359E-1,-1.432780623E-1
9.869482920E0,9.262474179E-1,-6.428871155E-1,-5.645901710E-2
9.879492685E0,8.831042051E-1,-6.157228351E-1,5.113269389E-2
9.889410898E0,7.563377619E-1,-5.219795704E-1,1.731054783E-1
9.899420664E0,5.464806557E-1,-3.824299276E-1,2.759034932E-1
9.909399912E0,3.504720032E-1,-2.263686955E-1,3.355582952E-1
9.919409678E0,1.043959185E-1,-1.065264456E-3,3.850930929E-1
9.929358408E0,-1.091896072E-1,2.103897333E-1,4.138552547E-1
9.939398691E0,-2.466087192E-1,4.175836742E-1,4.218447208E-1
9.949377939E0,-2.956108749E-1,5.821670294E-1,4.159857631E-1
9.959357187E0,-2.689792812E-1,6.769755483E-1,4.143878818E-1
9.969305918E0,-1.976065636E-1,6.940197945E-1,4.143878818E-1
9.979315683E0,-9.321063757E-2,6.636597514E-1,4.127899706E-1
9.989294931E0,1.651159860E-2,5.592638254E-1,3.952131271E-1
9.999335215E0,1.171790883E-1,4.090615511E-1,3.376888335E-1
1.000928394E1,1.864212751E-1,2.274339646E-1,2.700445354E-1
1.001929371E1,2.103897333E-1,7.723167539E-2,1.757686287E-1
