"Time (s)","Linear Acceleration x (m/s^2)","Linear Acceleration y (m/s^2)","Linear Acceleration z (m/s^2)"
2.979743800E-2,5.526620150E-1,2.828750610E-1,-1.209116936E0
3.979743800E-2,5.919784307E-1,2.998628616E-1,-1.194071293E0
4.979743800E-2,6.614325047E-1,3.666982651E-1,-1.123205543E0
5.979743800E-2,6.561291218E-1,3.625450134E-1,-9.216572046E-1
6.979743800E-2,1.029656768E0,-2.175998688E-2,-8.649878502E-1
7.979743800E-2,1.100918055E0,-3.812789917E-3,-9.426022768E-1
8.979743800E-2,1.077900171E0,1.314163208E-1,-9.413514137E-1
9.979743800E-2,9.697469473E-1,1.838779449E-1,-8.008979559E-1
1.097974380E-1,1.008069873E0,2.497396469E-1,-3.939404488E-1
1.197974380E-1,1.017177701E0,2.779693604E-1,-3.719692230E-1
1.297974380E-1,9.428819418E-1,4.090032578E-1,-2.282471657E-1
1.397974380E-1,5.463294983E-1,4.552507401E-1,-2.611234188E-1
1.497974380E-1,7.146638632E-1,3.374147415E-1,-1.862800121E-1
1.597974380E-1,6.617616415E-1,3.449459076E-1,-1.853981018E-1
1.697974380E-1,6.919192076E-1,5.154399872E-1,-3.179681301E-1
1.797974380E-1,4.173761606E-1,9.964761734E-1,-2.329821587E-1
1.897974380E-1,-1.149747372E-1,1.087087631E0,-1.531536579E-1
1.997974380E-1,2.953934669E-2,7.135353088E-1,-3.253145218E-1
2.097974380E-1,2.624136209E-1,6.667366028E-1,-6.026835442E-1
2.197974380E-1,-7.241511345E-2,8.904962540E-1,-5.224380493E-1
2.297974380E-1,-2.879002094E-1,1.258289337E0,8.366608620E-2
2.397974380E-1,-1.810954809E-1,1.307554245E0,3.711369038E-1
2.497974380E-1,4.682625532E-1,1.047633171E0,2.283172607E-1
2.597974380E-1,1.267054915E0,6.940660477E-1,-2.145907879E-1
2.697974380E-1,1.761171222E0,2.065620422E-1,-9.885382652E-2
2.797974380E-1,1.782688618E0,5.724525452E-2,-1.452560425E-1
2.897974380E-1,1.884688616E0,8.877754211E-3,2.370119095E-1
2.997974380E-1,2.011283159E0,1.721954346E-1,2.299299240E-1
3.097974380E-1,1.575241208E0,1.507625580E-1,1.185059547E-1
3.197974380E-1,1.512752652E0,2.041578293E-1,1.972699165E-2
3.297974380E-1,1.378881574E0,3.417310715E-1,-4.160332680E-1
3.397974380E-1,1.214130282E0,1.262760162E-1,-1.067256927E0
3.497974380E-1,1.692650557E0,-1.544723511E-1,-1.174245834E0
3.597974380E-1,1.623027325E0,-2.097482681E-1,-1.165115833E0
3.697974380E-1,1.424727678E0,-1.267938614E-1,-7.577147484E-1
3.797974380E-1,1.290364027E0,4.850358963E-1,-5.324726105E-1
3.897974380E-1,1.051977515E0,5.591754913E-1,-1.022281408E0
3.997974380E-1,8.053969145E-1,1.485280991E-1,-1.497242332E0
4.097974380E-1,5.896987319E-1,-5.873126984E-1,-2.437612534E0
4.197974380E-1,4.529930949E-1,-7.191381454E-1,-2.697891235E0
4.297974380E-1,4.234685898E-1,-5.110645294E-2,-1.989079356E0
4.397974380E-1,2.896016836E-1,3.385353088E-1,-1.475619674E0
4.497974380E-1,2.300932407E-1,-1.123714447E-1,-1.680956960E0
4.597974380E-1,5.571484566E-1,-4.287157059E-1,-1.419020534E0
4.697974380E-1,1.321819782E0,-8.615760803E-1,-8.352952003E-1
4.797974380E-1,1.202397466E0,-1.054553986E0,-5.974159241E-1
4.897974380E-1,8.515744805E-1,-1.546856880E0,-2.049591541E-1
4.997974380E-1,6.634250879E-1,-1.765909672E0,-7.518815994E-2
5.097974380E-1,2.102726698E-1,-2.049081326E0,-1.023146629E0
5.197974710E-1,2.346279621E-1,-2.080599785E0,-9.777731895E-1
5.297974710E-1,5.588742495E-1,-2.006707191E0,-1.479847431E0
5.397974710E-1,3.744008839E-1,-2.142222881E0,-1.372639179E0
5.497974710E-1,1.827145815E-1,-2.731155872E0,-2.186201334E0
5.597975040E-1,2.116243839E-1,-2.987025261E0,-2.709018707E0
5.697975040E-1,9.732350707E-2,-3.792026997E0,-2.150270700E0
5.797975040E-1,-7.341425419E-1,-4.926332951E0,-7.948106527E-1
5.897975040E-1,5.092471838E-1,-4.839040756E0,1.923286915E-1
5.997975040E-1,1.213368654E0,-4.386169434E0,3.815724850E-1
6.097975040E-1,9.476058483E-1,-4.834013462E0,8.159551620E-1
6.197975040E-1,1.012422323E0,-3.975444317E0,-5.882802010E-1
6.297975040E-1,1.625394702E0,-2.041200638E0,-6.875002384E-1
6.397975040E-1,1.614953399E0,-1.582715511E0,-7.246270180E-1
6.497975040E-1,1.772587538E0,-1.333280563E0,-5.112805367E-1
6.597975040E-1,2.196814060E0,-6.351432800E-1,-5.023729801E-1
6.697975040E-1,2.820784569E0,1.592225075E0,-7.906243801E-1
6.797975040E-1,2.797944546E0,2.364492416E0,-1.089095592E0
6.897975040E-1,2.459933281E0,4.523135185E0,-1.254606247E0
6.997975040E-1,1.912097931E0,6.503447533E0,-1.097965240E-2
7.097975040E-1,3.214460611E-2,9.529403687E0,-3.450329304E-1
7.197975040E-1,-3.326680660E-1,1.041719818E1,-4.884223938E-1
7.297975040E-1,-7.532374859E-1,1.356365395E1,-8.661444187E-1
7.397975040E-1,4.123132825E-1,1.583751488E1,-2.652502060E-2
7.497975040E-1,5.260539055E-1,1.912297249E1,4.840214729E0
7.597975040E-1,5.019502640E-1,1.916832733E1,5.880685806E0
7.697975040E-1,2.425414324E-2,1.845227051E1,9.270393372E0
7.797975040E-1,-3.026151061E-1,1.675481987E1,1.080349922E1
7.897975040E-1,4.612869024E-2,1.400658226E1,1.045063972E1
7.997975040E-1,-4.870215654E-1,1.187442303E1,8.841195107E0
8.097975040E-1,-8.840405941E-1,9.321307182E0,6.467108727E0
8.197974700E-1,-8.143123984E-1,6.305242538E0,3.811986685E0
8.297974700E-1,-9.262255430E-1,2.648819923E0,5.098550320E-1
8.397974700E-1,-6.405863762E-1,5.193777084E-1,-1.129733443E0
8.497974700E-1,-2.110345960E-1,-2.139633179E0,-2.191459656E0
8.597974360E-1,7.505571246E-1,-4.462352753E0,-3.067198038E0
8.697974360E-1,1.428686142E0,-7.352068901E0,-2.579447746E0
8.797974360E-1,1.429039717E0,-8.090664864E0,-2.248047352E0
8.897974360E-1,9.495476484E-1,-9.893281937E0,-1.766806364E0
8.997974360E-1,7.738727927E-1,-1.110060310E1,-1.289370060E0
9.097974360E-1,6.761372089E-1,-1.287495613E1,-1.239004135E0
9.197974360E-1,6.824310422E-1,-1.321104050E1,-1.421284914E0
9.297974360E-1,1.083503962E0,-1.375638008E1,-2.203857422E0
9.397974360E-1,1.067496300E0,-1.405221558E1,-2.656701565E0
9.497974360E-1,9.040253758E-1,-1.342782116E1,-4.127573967E0
9.597974360E-1,9.089674950E-1,-1.333238125E1,-4.191973686E0
9.697974360E-1,1.105939984E0,-1.250433731E1,-4.669185638E0
9.797974360E-1,6.779249907E-1,-1.232396984E1,-4.768690109E0
9.897974360E-1,6.650950313E-1,-1.209641075E1,-5.171674728E0
9.997974360E-1,6.581088305E-1,-1.169986248E1,-5.345080376E0
1.009797436E0,7.035249472E-1,-1.078116703E1,-4.888831139E0
1.019797436E0,2.273945063E-1,-1.000693321E1,-3.998247862E0
1.029797436E0,-3.145566881E-1,-9.693513870E0,-2.566491842E0
1.039797436E0,-6.436985731E-1,-9.183824539E0,-1.339913011E0
1.049797436E0,-1.056268215E0,-8.227762222E0,-3.608667850E-2
1.059797436E0,-1.073273182E0,-7.432763100E0,5.632505417E-1
1.069797436E0,-1.764454961E0,-6.803917408E0,9.398475885E-1
1.079797436E0,-1.821141720E0,-6.696012497E0,9.906470776E-1
1.089797436E0,-1.512933493E0,-5.631990433E0,1.127703547E0
1.099797436E0,-5.724786520E-1,-4.117784500E0,1.310117006E0
1.109797436E0,6.175268888E-1,-3.925771713E-1,2.964886189E0
1.119797436E0,5.716255903E-1,6.675033569E-1,3.649481058E0
1.129797436E0,1.519153476E0,4.065135956E0,3.388502836E0
1.139797436E0,2.300497770E0,6.869124413E0,-6.907546520E-1
1.149797436E0,2.517494917E0,1.386832619E1,-1.411042976E1
1.159797369E0,2.546721935E0,1.384619141E1,-1.393397141E1
1.169797369E0,2.129692554E0,1.896866798E1,-1.442293358E1
1.179797369E0,1.415443182E0,2.283013725E1,-7.905522346E0
1.189797369E0,3.054920912E0,2.569944191E1,1.031323433E0
1.199797369E0,3.367362976E0,2.719138336E1,6.684887886E0
1.209797369E0,3.409457207E0,2.666828346E1,1.162864971E1
1.219797369E0,2.626239538E0,2.429887390E1,1.393835068E1
1.229797369E0,1.363379478E0,2.030482864E1,1.224009037E1
1.239797369E0,7.297978401E-1,1.729195023E1,9.720390320E0
1.249797369E0,-1.346557438E-1,1.294919109E1,5.240874290E0
1.259797369E0,-2.358092964E-1,8.947501183E0,2.675741911E-1
1.269797369E0,-1.491436362E-2,2.901867867E0,-4.074416161E0
1.279797369E0,3.587821722E-1,1.839147568E0,-4.229983807E0
1.289797369E0,1.534098387E0,-1.206463814E0,-3.961226463E0
1.299797369E0,2.407291412E0,-4.525695801E0,-2.735274315E0
1.309797369E0,2.909341335E0,-9.465620995E0,-6.114162803E-1
1.319797369E0,2.803003311E0,-1.001181030E1,-3.677268028E-1
1.329797369E0,2.383092165E0,-1.159255028E1,2.696025372E-1
1.339797369E0,1.498768210E0,-1.287791061E1,-2.825343609E-2
1.349797369E0,-3.930094242E-1,-1.437435913E1,-2.290474176E0
1.359797369E0,-5.657113791E-1,-1.443890572E1,-2.554913521E0
1.369797369E0,-6.191305518E-1,-1.400744629E1,-3.488093615E0
1.379797369E0,-4.487725496E-1,-1.359354401E1,-3.783359528E0
1.389797369E0,-4.937973917E-1,-1.295327473E1,-4.207698822E0
1.399797369E0,-3.784022629E-1,-1.212592316E1,-4.326801777E0
1.409797369E0,2.460161895E-1,-1.127988243E1,-4.113315582E0
1.419797369E0,5.217138529E-1,-1.068109035E1,-3.245597124E0
1.429797369E0,3.548237681E-1,-1.019550991E1,-2.002566814E0
1.439797369E0,4.087330699E-1,-9.747322083E0,-1.421280146E0
1.449797369E0,4.752972424E-1,-9.291940689E0,-5.748562813E-1
1.459797435E0,2.490676641E-1,-9.227238655E0,-2.409720421E-1
1.469797435E0,-1.601394415E-1,-9.350509644E0,-3.553366661E-1
1.479797435E0,-3.247960806E-1,-9.391222954E0,-3.878103495E-1
1.489797435E0,-6.616451144E-1,-9.530611992E0,-5.147277117E-1
1.499797435E0,-4.857715964E-1,-9.514750481E0,-8.800789714E-1
1.509797435E0,5.334436893E-2,-9.039349556E0,-1.038504362E0
1.519797468E0,6.887507439E-2,-8.958444595E0,-1.068810582E0
1.529797468E0,6.649661064E-1,-8.361678123E0,-6.888899803E-1
1.539797468E0,6.588897705E-1,-7.936511040E0,-3.771544695E-1
1.553170114E0,1.343802094E0,-5.047483444E0,1.885310411E-1
1.563170147E0,1.256677032E0,-5.039483070E0,1.308194399E-1
1.573170147E0,2.445712328E0,-7.751626968E-1,9.965324402E-2
1.583170147E0,3.059217215E0,3.702953339E0,-5.625538826E-1
1.593170147E0,1.302574277E0,9.400155067E0,-4.302341461E0
1.603170147E0,-1.970101893E-2,1.365715408E1,-7.685125351E0
1.613170147E0,-1.056720614E0,1.924463654E1,-1.003637409E1
1.623170147E0,-1.746730566E0,2.376378632E1,-8.211772919E0
1.633170147E0,-4.166694283E-1,2.657795143E1,1.546566010E0
1.643170147E0,3.240861654E0,2.863525391E1,6.870726585E0
1.653170147E0,6.272293568E0,2.958673859E1,1.123461246E1
1.663170147E0,6.416415215E0,2.819740677E1,1.428991508E1
1.673170147E0,3.954890966E0,2.337786102E1,1.284142685E1
1.683170147E0,3.264363289E0,2.176206017E1,1.148532009E1
1.693170147E0,1.471142769E0,1.708102417E1,7.110808372E0
1.703170147E0,1.431003213E-1,1.285603523E1,1.837084770E0
1.713170147E0,-1.195544958E0,6.749823570E0,-3.395319939E0
1.723170147E0,-1.162919283E0,5.414335251E0,-3.632024288E0
1.733170147E0,-6.597642303E-1,2.137961388E0,-3.367988110E0
1.743170147E0,-2.306795418E-1,-8.305101395E-1,-2.265651226E0
1.753170147E0,1.063331962E-2,-5.402224064E0,-5.262520313E-1
1.763170147E0,-4.468679428E-3,-5.409533024E0,-4.846247435E-1
1.773170147E0,-1.288262904E-1,-8.059288979E0,1.214326620E-1
1.783170147E0,-1.251019984E-1,-1.009026051E1,-1.428753138E-1
1.793170147E0,-5.920417607E-2,-1.211163712E1,-1.465256691E0
1.803170147E0,-9.755524248E-2,-1.295177174E1,-2.358762264E0
1.813170147E0,-4.390983880E-1,-1.388948059E1,-3.783430576E0
1.823170113E0,-6.356307864E-1,-1.424108791E1,-5.012467861E0
1.833170113E0,-9.226795435E-1,-1.398682404E1,-5.945672512E0
1.843170113E0,-9.268187881E-1,-1.367058372E1,-6.223556042E0
1.853170113E0,-8.117722869E-1,-1.314313221E1,-6.183708191E0
1.863170079E0,-5.543348789E-1,-1.234729004E1,-5.662902832E0
1.873170079E0,-4.161781371E-1,-1.149620342E1,-3.534791946E0
1.883170079E0,-4.263420701E-1,-1.130143642E1,-2.998804808E0
1.893170079E0,-4.931418300E-1,-1.086698627E1,-1.846860647E0
1.903170079E0,-7.820952535E-1,-1.036048985E1,-1.366506457E0
1.913170079E0,2.491042465E-1,-9.210646629E0,-8.225883842E-1
1.923170112E0,4.042173624E-1,-9.083036423E0,-8.413918614E-1
1.933170112E0,1.060526371E0,-8.970582008E0,-7.925316095E-1
1.943170112E0,1.820671797E0,-8.703743935E0,-2.680001259E-1
1.953170112E0,2.615355492E0,-8.396091461E0,1.297074199E0
1.963170112E0,2.662909985E0,-8.320603371E0,1.722562075E0
1.973170112E0,2.366540432E0,-8.315427780E0,2.869384289E0
1.983170112E0,1.612637162E0,-8.358840942E0,3.642102003E0
1.993170112E0,1.398984194E0,-7.030869484E0,4.587283134E0
2.003170112E0,2.585718870E0,-5.759467125E0,5.253116608E0
2.013170112E0,2.745356560E0,-4.222530842E0,4.730831146E0
2.023170112E0,1.385115743E0,-1.592796326E0,3.175217152E0
2.033170112E0,-1.382139802E0,3.245474815E0,-7.793240547E-1
2.043170112E0,-2.566531897E0,6.947149277E0,-4.622292519E0
2.053170112E0,-4.581167221E0,1.226109219E1,-1.231609535E1
2.063170112E0,-4.753046989E0,1.744229126E1,-1.848802948E1
2.073170112E0,-3.137512207E0,2.273162842E1,-1.264419365E1
2.083170112E0,-1.380992889E0,2.359875107E1,-9.263646126E0
2.093170112E0,3.937980413E0,2.567618942E1,2.218113422E0
2.103170112E0,5.485411167E0,2.690997696E1,1.437568760E1
2.113170112E0,5.310805321E0,2.475044441E1,2.241717529E1
2.123170112E0,4.392024517E0,2.425757980E1,2.095559502E1
2.133170112E0,2.112434387E0,2.194922256E1,1.452196121E1
2.143170112E0,8.459507823E-1,1.830978775E1,6.925614834E0
2.153170112E0,1.937383056E0,1.101572227E1,-2.097903728E0
2.163170112E0,1.946443081E0,9.780881882E0,-2.642356634E0
2.173170112E0,2.033200979E0,4.900476456E0,-3.743036509E0
2.183170112E0,1.234883428E0,7.385931015E-1,-3.130048990E0
2.193170112E0,1.408300877E0,-2.404472828E0,-1.986155748E0
2.203170112E0,1.262344956E0,-5.101259708E0,-4.719090462E-1
2.213170112E0,7.649246454E-1,-7.943622589E0,1.476670027E0
2.223170078E0,7.714730501E-1,-9.735747337E0,2.088960171E0
2.233170078E0,1.207570553E0,-1.163250923E1,6.091043949E-1
2.243170078E0,1.115634441E0,-1.293449688E1,-1.294780016E0
2.253170078E0,4.204589128E-1,-1.352280521E1,-3.365525484E0
2.263170078E0,-5.044970512E-1,-1.391104507E1,-5.387011528E0
2.273170078E0,-5.144581795E-1,-1.385859489E1,-6.559740067E0
2.283170078E0,-3.928825855E-1,-1.366737556E1,-6.284100056E0
2.293170078E0,-4.430480301E-1,-1.317162704E1,-5.297993660E0
2.303170078E0,-5.555483103E-1,-1.270297050E1,-4.060798645E0
2.313170078E0,-1.049112439E0,-1.149385834E1,-2.536502838E0
2.323170078E0,-8.832257390E-1,-1.122849751E1,-2.435203552E0
2.333170078E0,-7.413970828E-1,-1.030644608E1,-1.988795996E0
2.343170078E0,-6.676155329E-1,-9.801166534E0,-1.520825505E0
2.353170078E0,-1.047034740E0,-9.185560226E0,-1.116118193E0
2.363170078E0,-9.633376598E-1,-9.136850357E0,-9.914094210E-1
2.373170078E0,-8.008286357E-1,-9.381743431E0,-6.299012899E-1
2.383170078E0,-5.370762348E-1,-9.389116287E0,-3.830372095E-1
2.393170078E0,-5.165107250E-1,-9.344899178E0,2.113449574E-2
2.403170078E0,-2.033066750E-1,-9.085060120E0,-2.867985964E-1
2.413170078E0,3.184639215E-1,-8.681595802E0,-6.691781878E-1
2.423170078E0,8.184615374E-1,-8.243248940E0,-2.636586428E-1
2.433170078E0,1.202796459E0,-7.709129333E0,2.509610653E-1
2.443170078E0,1.638903856E0,-7.057589531E0,8.192578554E-1
2.453170078E0,1.538025618E0,-5.769578934E0,1.153764963E0
2.463170078E0,7.460387349E-1,-3.798783302E0,1.308078766E-1
2.473170078E0,1.224431634E0,2.242380142E0,-3.378461361E0
2.483170078E0,1.063595772E0,3.828788757E0,-4.332119465E0
2.493170078E0,2.829553485E-1,8.575935364E0,-6.883356094E0
2.503170078E0,-5.114743114E-2,1.408637428E1,-8.649648666E0
2.513170078E0,1.132267237E0,2.305312157E1,-6.966202736E0
2.523170111E0,1.655501366E0,2.452731514E1,-5.292196274E0
2.533170111E0,2.852150440E0,2.780654716E1,1.074210763E0
2.543170111E0,3.475293636E0,3.012373734E1,6.177467346E0
2.553170111E0,1.610030293E0,2.886838531E1,8.847618103E0
2.563169744E0,1.269622803E0,2.831294441E1,8.553101540E0
2.573169744E0,1.010460377E0,2.546807098E1,6.610876083E0
2.583169744E0,1.950672626E0,2.188782501E1,4.543465137E0
2.593169744E0,1.867714047E0,1.704979515E1,2.669653177E0
2.603169744E0,1.062828779E0,1.304908562E1,8.737824559E-1
2.613169744E0,3.126879334E-1,8.872724533E0,-9.676754475E-1
2.623169744E0,-2.740361094E-1,4.966738701E0,-1.810326338E0
2.633169744E0,-1.218746901E0,3.732166290E-1,-1.754010558E0
2.643169744E0,-1.100983262E0,-2.580928326E0,-1.392538071E0
2.653169744E0,-9.880120754E-1,-5.687930584E0,-8.192828298E-1
2.663169744E0,-6.682888865E-1,-8.581223488E0,-5.560171008E-1
2.673169744E0,1.312558651E-1,-1.228342724E1,-1.844365299E-1
2.683169744E0,1.786290109E-1,-1.295128345E1,-1.840963364E-1
2.693169744E0,6.886933446E-1,-1.418762398E1,-1.204600334E-1
2.703169744E0,6.917383671E-1,-1.516924286E1,-2.545037568E-1
2.713169744E0,-8.926088363E-2,-1.520397186E1,-2.069543123E0
2.723169744E0,-2.709568739E-1,-1.498015022E1,-2.555401087E0
2.733169744E0,-6.494681239E-1,-1.437087059E1,-3.721877098E0
2.743169744E0,-1.025923610E0,-1.369024467E1,-4.574601173E0
2.753169744E0,-1.064584732E0,-1.202523708E1,-4.320961952E0
2.763169744E0,-1.042585373E0,-1.202319241E1,-4.363069057E0
2.773169744E0,-1.199274182E0,-1.131834507E1,-3.278230906E0
2.783169744E0,-1.183968425E0,-1.059778881E1,-2.184049129E0
2.793169444E0,-1.061205029E0,-9.923739433E0,-9.693544507E-1
2.803169444E0,-7.471630573E-1,-9.497677803E0,-2.768792510E-1
2.813169444E0,-4.935124516E-1,-9.049455643E0,4.178299308E-1
2.823169410E0,-1.124012247E-1,-8.801938057E0,9.480435848E-1
2.833169410E0,2.493862510E-1,-8.515623093E0,1.235948801E0
2.843169410E0,7.074030042E-1,-8.437162399E0,1.369992137E0
2.853169410E0,1.298232198E0,-8.473303795E0,1.420088410E0
2.863169776E0,1.315942645E0,-8.396711349E0,1.704978108E0
2.873169342E0,1.021515131E0,-7.851284027E0,1.533753872E0
2.883169342E0,1.060361028E0,-7.791280746E0,1.371913671E0
2.893169342E0,1.323177576E0,-7.405625343E0,8.845208883E-1
2.903169342E0,1.271670699E0,-6.825692177E0,5.953522921E-1
2.913169342E0,1.142356277E0,-5.222537041E0,-3.761231899E-1
2.923169375E0,9.589096308E-1,-4.549081802E0,-6.608934402E-1
2.933169375E0,1.119465470E0,-1.808164120E0,-1.441708922E0
2.943169375E0,1.268500447E0,1.826004982E0,-2.462427378E0
2.953169275E0,-9.814502597E-1,1.095448399E1,-7.066209793E0
2.963169275E0,-8.910130262E-1,1.095669746E1,-7.082045078E0
2.973169275E0,-3.610828400E0,1.849724579E1,-1.139427376E1
2.983169275E0,-5.296813488E0,2.396739769E1,-1.045671368E1
2.993169275E0,-3.670928001E0,2.823296928E1,-1.003346205E0
3.003169275E0,1.096703336E-1,3.104666901E1,7.525534630E0
3.013169275E0,3.312143087E0,3.101618958E1,1.598979092E1
3.023169275E0,5.846070290E0,2.942287254E1,2.176401901E1
3.033169275E0,6.738325596E0,2.567644119E1,1.937254715E1
3.043169275E0,5.301363945E0,2.238969803E1,1.400125122E1
3.053169275E0,2.983449936E0,1.726375580E1,5.424909592E0
3.063169275E0,1.465146303E0,1.243285084E1,-1.214006424E0
3.073169275E0,5.850377083E-1,5.695761681E0,-6.928312778E0
3.083169275E0,5.856924057E-1,4.371232033E0,-6.927891731E0
3.093169575E0,3.602364659E-1,9.140825272E-1,-5.606482983E0
3.103169575E0,1.740878671E-1,-2.608359814E0,-3.427762747E0
3.113169575E0,6.071093082E-1,-7.661223888E0,-4.625663757E-1
3.123169575E0,7.133610249E-1,-8.264156342E0,-1.159551144E-1
3.133169575E0,1.237226725E0,-1.043359375E1,9.951429367E-1
3.143169575E0,9.134107232E-1,-1.225360680E1,1.063085914E0
3.153169575E0,6.649798751E-1,-1.405408669E1,-1.013182163E0
3.163169575E0,5.676742196E-1,-1.425931549E1,-1.412159324E0
3.173170008E0,2.010761201E-1,-1.427107620E1,-3.538532734E0
3.183170008E0,1.937561482E-1,-1.350201511E1,-4.609838009E0
3.193170008E0,4.151818454E-1,-1.288542461E1,-5.071655750E0
3.203170008E0,2.012459189E-1,-1.244880486E1,-5.036087990E0
3.213170008E0,9.864771366E-2,-1.169690514E1,-4.431772709E0
3.223169974E0,-1.699760556E-2,-1.108254814E1,-3.619644642E0
3.233169974E0,-4.450517595E-1,-1.041006088E1,-2.572964191E0
3.243169974E0,-5.887666941E-1,-9.982190132E0,-1.848241329E0
3.253170074E0,-7.931287289E-1,-9.438644409E0,-8.013985753E-1
3.263170074E0,-4.901218712E-1,-9.276115417E0,1.332715750E-1
3.273170074E0,-3.809580803E-1,-9.268270493E0,5.422078371E-1
3.283170074E0,-4.365887642E-1,-9.296362877E0,4.829040766E-1
3.293170074E0,-4.705889225E-1,-9.286147118E0,2.633557320E-1
3.303170074E0,-6.493687630E-1,-9.306080818E0,-3.141796589E-2
3.313170107E0,-2.841282189E-1,-9.185476303E0,-1.102120161E0
3.323170140E0,-2.484752834E-1,-9.115094185E0,-1.131462574E0
3.333170140E0,-2.964230478E-1,-8.942849159E0,-9.916265607E-1
3.343170140E0,-2.038461715E-1,-8.565722466E0,-6.972773075E-1
3.353170140E0,-3.264321014E-2,-6.932792664E0,-4.404842854E-2
3.363170140E0,4.634205997E-2,-6.612688541E0,3.524017334E-2
3.373170140E0,1.572267562E-1,-5.092166424E0,5.145438910E-1
3.383170140E0,1.863289326E-1,-2.726993561E0,3.954935074E-2
3.393170140E0,1.272158742E0,1.083902359E0,-1.486382246E0
3.403170140E0,1.584095240E0,4.797222137E0,-3.306715965E0
3.413170140E0,4.625318646E-1,9.735805511E0,-6.743040562E0
3.423170140E0,-4.587517977E-1,1.553252888E1,-1.012747765E1
3.433170140E0,-8.024071455E-1,2.191342163E1,-9.167503357E0
3.443170140E0,-4.833788574E-1,2.498838425E1,-4.916082382E0
3.453170140E0,1.500351667E0,2.832304955E1,2.452763557E0
3.463170140E0,3.719350815E0,3.053261566E1,7.950577259E0
3.473170140E0,5.077666759E0,2.903761292E1,1.229683876E1
3.483170140E0,4.816458702E0,2.810808945E1,1.157058620E1
3.493170140E0,4.084475994E0,2.479731750E1,8.720471382E0
3.503170140E0,2.917878628E0,2.056901550E1,5.921771049E0
3.513170140E0,5.674567819E-1,1.313725662E1,1.239122152E-1
3.523170173E0,2.221519351E-1,1.150991344E1,-8.108996749E-1
3.533170173E0,-4.568313360E-1,7.256816864E0,-2.666177750E0
3.543170173E0,-4.871577621E-1,3.343589783E0,-3.260374546E0
3.553170173E0,1.674021184E-1,-2.498913288E0,-1.914996982E0
3.563170206E0,2.020750493E-1,-3.281246185E0,-1.662847042E0
3.573170206E0,4.835223556E-1,-6.089700699E0,-7.252973318E-1
3.583170206E0,4.073407650E-1,-8.645581245E0,-8.382558823E-3
3.593170206E0,-6.360621750E-2,-1.132348633E1,-5.223441124E-2
3.603170206E0,-4.846618772E-1,-1.243604469E1,-4.077513218E-1
3.613170172E0,-8.937234879E-1,-1.357747269E1,-1.166790843E0
3.623170138E0,-7.361971140E-1,-1.430698967E1,-1.973780870E0
3.633170138E0,-2.639709711E-1,-1.430317593E1,-2.695310831E0
3.643170138E0,-7.369008660E-2,-1.398973560E1,-3.206705332E0
3.653170138E0,-2.283011228E-1,-1.347946644E1,-3.821205616E0
3.663170138E0,-4.614525735E-1,-1.288480854E1,-4.058766365E0
3.673170138E0,-9.663572907E-1,-1.163812733E1,-3.836479187E0
3.683170138E0,-1.044507265E0,-1.129057407E1,-3.582188606E0
3.693170138E0,-1.050531387E0,-1.060410786E1,-2.668766975E0
3.703170138E0,-9.688532352E-1,-1.002899456E1,-1.680565357E0
3.713170138E0,-1.044327855E0,-9.438690186E0,-2.431161404E-1
3.723170138E0,-1.034313798E0,-9.454032898E0,-1.781926155E-1
3.733170138E0,-7.272934318E-1,-9.419922829E0,-4.020023346E-2
3.743170138E0,-3.259536624E-1,-9.252173424E0,2.125359774E-1
3.753170138E0,2.382125556E-1,-9.098714828E0,-9.936285019E-2
3.763170138E0,3.725926578E-1,-9.095822334E0,-2.333378792E-1
3.773170138E0,6.215437651E-1,-8.917346954E0,-3.872314692E-1
3.783170138E0,7.335519195E-1,-8.572681427E0,-5.647861362E-1
3.793170138E0,8.385893106E-1,-8.241485596E0,-3.862810135E-1
3.803170138E0,9.292261004E-1,-7.818752289E0,1.211130619E-2
3.813170138E0,9.622980356E-1,-7.223947048E0,5.287801027E-1
3.823170104E0,8.900412917E-1,-6.115962982E0,8.745704889E-1
3.833170104E0,7.436515689E-1,-3.633569241E0,1.004869342E0
3.843170104E0,9.448036551E-1,-1.165695190E0,6.394652128E-1
3.853170104E0,9.639142752E-1,3.005756378E0,-9.498823285E-1
3.863170070E0,-2.909828722E-1,8.594297409E0,-4.321642876E0
3.873170070E0,-2.668875217E0,1.788206291E1,-1.043718815E1
3.883170070E0,-2.598594904E0,1.945958519E1,-1.131349754E1
3.893170070E0,-5.968252420E-1,2.399472046E1,-9.082318306E0
3.903170070E0,2.623493195E0,2.771389389E1,-5.632561445E-1
3.913170070E0,8.456264496E0,2.971767426E1,1.184507465E1
3.923170070E0,9.165216446E0,2.945328331E1,1.389225006E1
3.933170070E0,1.032788944E1,2.774676132E1,1.747844505E1
3.943170503E0,9.197731018E0,2.490340042E1,1.522714233E1
3.953170503E0,4.312761784E0,1.793861389E1,6.254065514E0
3.963170503E0,3.557417870E0,1.667574883E1,5.007220268E0
3.973170503E0,3.336845636E-1,1.199244595E1,-2.607698441E-1
3.983170503E0,-2.330288410E0,7.793099403E0,-4.987074852E0
3.993170503E0,-2.960249901E0,3.554379463E0,-7.369482994E0
4.003170503E0,-2.501051903E0,5.602407455E-1,-6.354271889E0
4.013170503E0,-1.248179793E0,-2.976053238E0,-3.294942379E0
4.023170503E0,-5.812216997E-1,-5.572876453E0,-1.167405963E0
4.033170503E0,-1.505848169E-1,-8.894019127E0,8.605816960E-1
4.043170503E0,-3.830859959E-1,-1.063373852E1,1.746147633E0
4.053170503E0,-9.617770314E-1,-1.225879097E1,1.721653223E0
4.063170503E0,-1.731369972E0,-1.370224190E1,3.225473762E-1
4.073170503E0,-2.814022541E0,-1.489659309E1,-3.494216919E0
4.083170503E0,-2.643636465E0,-1.486078835E1,-4.172906399E0
4.093170503E0,-1.352081537E0,-1.435693550E1,-5.583384991E0
4.103170503E0,-2.894195914E-1,-1.379652882E1,-6.149011612E0
4.113170503E0,-2.539034486E-1,-1.278882027E1,-4.140099049E0
4.123170503E0,-3.718918562E-1,-1.261021423E1,-3.498006821E0
4.133170503E0,-7.070540190E-1,-1.194243431E1,-2.086618185E0
4.143170503E0,-7.005933523E-1,-1.100396252E1,-1.063271046E0
4.153170503E0,-1.161646008E0,-9.874155998E0,3.824567795E-1
4.163170503E0,-1.414304018E0,-9.747982025E0,5.276952386E-1
4.173170503E0,-5.688336492E-1,-9.038073540E0,8.712134957E-1
4.183170503E0,-2.799444795E-1,-8.386054993E0,1.288416147E0
4.193170503E0,-1.190969586E0,-8.309206963E0,1.468721867E0
4.203170503E0,-1.376612782E0,-8.436497688E0,1.597692370E0
4.213170503E0,-1.006214023E0,-8.739312172E0,1.580053806E0
4.223170503E0,-6.941171288E-1,-9.292161942E0,1.158037782E0
4.233170503E0,-5.582417920E-2,-9.132649422E0,1.589496732E-1
4.243170069E0,6.852504611E-1,-8.760581970E0,-4.347948432E-1
4.253170069E0,1.357882738E0,-8.469406128E0,-6.945710182E-1
4.263170069E0,1.698546410E0,-7.832192898E0,-5.631430149E-1
4.273170069E0,1.678922772E0,-5.589087963E0,9.944027066E-1
4.283170069E0,1.784657598E0,-4.742516041E0,1.254085302E0
4.293170069E0,1.958035350E0,-1.994946480E0,1.014284611E0
4.303169735E0,1.900722265E0,1.472626686E0,-1.434710264E0
4.313169735E0,1.900144815E0,1.074744511E1,-9.966134071E0
4.323169735E0,1.551118016E0,1.284330845E1,-1.193165970E1
4.333169735E0,5.286962986E-1,1.737743378E1,-1.554541683E1
4.343169735E0,-7.580050826E-2,2.207682800E1,-1.377228355E1
4.353169735E0,3.722533584E-3,2.971249008E1,-1.012593031E0
4.363169735E0,2.870548964E-1,3.061351395E1,1.158014536E0
4.373169735E0,1.667235017E0,3.238383102E1,1.065202045E1
4.383169735E0,2.512925386E0,3.153930092E1,1.823319817E1
4.393169735E0,2.341715574E0,2.877402496E1,2.005546188E1
4.403169735E0,1.920514464E0,2.501774216E1,1.539485455E1
4.413169735E0,1.876094103E0,2.028354263E1,8.570775986E0
4.423169735E0,1.318109393E0,1.525800037E1,2.965237141E0
4.433169735E0,-1.105339825E-1,9.093997002E0,-2.033243656E0
4.443169735E0,-6.147980690E-1,5.854112625E0,-3.556025505E0
4.453169735E0,-2.061050534E-1,1.780089378E0,-4.175300598E0
4.463169735E0,1.513496786E-1,-1.631530762E0,-3.501749039E0
4.473169735E0,1.057584137E-1,-7.398894310E0,-1.943087578E0
4.483169735E0,9.735037386E-2,-8.684696198E0,-1.603508949E0
4.493169735E0,1.287000477E-1,-1.170789337E1,-9.836725593E-1
4.503169735E0,-2.365817130E-1,-1.394757462E1,-8.223521709E-1
4.513169735E0,-4.802323580E-1,-1.606019211E1,-1.714164257E0
4.523097535E0,-3.989925981E-1,-1.624479675E1,-2.003279924E0
4.533097535E0,1.069841683E-1,-1.622525024E1,-3.063933372E0
4.543097535E0,7.386474609E-1,-1.560387325E1,-4.023982048E0
4.553097535E0,9.503498673E-1,-1.424837208E1,-3.951725006E0
4.563097568E0,8.634288311E-1,-1.395719910E1,-3.747139692E0
4.573097568E0,7.763795257E-1,-1.267109203E1,-2.869206429E0
4.583097568E0,3.503568769E-1,-1.197513866E1,-2.120472431E0
4.593097568E0,1.118453443E-1,-1.097408676E1,-1.177539229E0
4.603097901E0,1.735620946E-2,-1.007026577E1,-1.188566685E-1
4.613097901E0,-1.608385146E-1,-9.448253632E0,7.704465985E-1
4.623097901E0,-1.692909896E-1,-9.357719421E0,1.428922176E0
4.633097901E0,-1.082505286E-2,-9.162556648E0,1.365203381E0
4.643097901E0,-1.721902192E-1,-9.277547836E0,1.182009220E0
4.653097901E0,-2.855152786E-1,-9.671809196E0,6.340636611E-1
4.663097901E0,-1.348387003E-1,-9.892410278E0,-3.765630722E-1
4.673097901E0,7.604805231E-1,-9.689518929E0,-1.612313032E0
4.683097901E0,7.653501630E-1,-9.689367294E0,-1.613044262E0
4.693097901E0,1.187798500E0,-9.388492584E0,-1.527956009E0
4.703097901E0,1.038662910E0,-8.901384354E0,-1.038543463E0
4.713097901E0,2.008347064E-1,-7.323176861E0,4.279425144E-1
4.723097901E0,2.255184948E-1,-7.041509628E0,7.556494474E-1
4.733097901E0,4.234329462E-1,-5.139184952E0,1.464023471E0
4.743097901E0,9.760551155E-2,-2.702171803E0,1.837568402E0
4.753097901E0,-1.485565305E-1,3.471299171E0,-1.364853382E0
4.763097901E0,-5.428832769E-2,4.530290604E0,-1.990705609E0
4.773097901E0,7.436841726E-2,8.713394165E0,-4.271280289E0
4.783097901E0,-1.468324661E-1,1.268860149E1,-6.511311531E0
4.793097901E0,-2.201727331E-1,1.734679413E1,-7.782291412E0
4.803097901E0,-6.539566517E-1,2.061433792E1,-6.622484207E0
4.813097901E0,1.183320880E-1,2.405421448E1,-3.171611786E0
4.823097867E0,1.274316788E0,2.762216187E1,1.115230918E0
4.833097867E0,3.169634044E-1,2.967730713E1,6.144214153E0
4.843097867E0,8.383327127E-1,2.917242050E1,8.410879135E0
4.853097867E0,1.765014648E0,2.729357910E1,9.885891914E0
4.863097833E0,2.594177723E0,2.503682327E1,8.672061920E0
4.873097833E0,2.575783253E0,1.753677559E1,3.674168587E0
4.883097833E0,2.344886303E0,1.570807171E1,2.566577196E0
4.893097833E0,1.054036856E0,1.109922504E1,-4.986208677E-2
4.903097833E0,-6.086044908E-1,6.672694206E0,-1.941428661E0
4.913097833E0,-1.091360331E0,-4.430532455E-1,-4.094603539E0
4.923097866E0,-1.073715687E0,-1.382597923E0,-4.129314423E0
4.933097866E0,-5.853004456E-1,-4.712813377E0,-3.788119793E0
4.943097866E0,-4.027695060E-1,-7.876796246E0,-2.746028900E0
4.953097866E0,-1.780401170E-1,-1.266234207E1,-1.305162549E0
4.963097866E0,-1.835354865E-1,-1.323999786E1,-1.157111883E0
4.973097866E0,-6.982699037E-3,-1.470757771E1,-5.909072161E-1
4.983097866E0,1.987254620E-1,-1.479744148E1,-2.493564636E-1
4.993097866E0,5.529217720E-1,-1.391933632E1,-4.701987505E-1
5.003097866E0,5.452519655E-1,-1.311561394E1,-8.964017630E-1
5.013097866E0,3.281207681E-1,-1.257758331E1,-1.422289014E0
5.023097866E0,4.282815158E-1,-1.177623940E1,-2.123495102E0
5.033097866E0,6.815171838E-1,-1.090060997E1,-2.416680574E0
5.043097866E0,7.927476168E-1,-1.038133430E1,-2.148477554E0
5.053097866E0,4.564733207E-1,-9.978801727E0,-1.596200109E0
5.063097866E0,-3.066688180E-1,-9.795853615E0,-1.076824903E0
5.073097866E0,-5.578212738E-1,-9.942751884E0,1.451660395E-1
5.083097866E0,-4.532110691E-1,-9.950343132E0,4.349591136E-1
5.093097866E0,-8.101034164E-2,-1.002962875E1,1.055537224E0
5.103097866E0,2.006719112E-1,-1.018096828E1,1.136838913E0
5.113097866E0,5.876432657E-1,-1.028497982E1,2.395394146E-1
5.123097866E0,6.171326637E-1,-1.023389149E1,6.003975868E-2
5.133097866E0,7.318149805E-1,-1.000338745E1,-1.789484322E-1
5.143097866E0,8.309311867E-1,-9.882609367E0,8.281272650E-2
5.153097866E0,7.459282875E-1,-9.334875107E0,4.546633363E-1
5.163097866E0,7.184616327E-1,-9.215044022E0,5.131891966E-1
5.173097866E0,6.408101916E-1,-8.577485085E0,8.348481059E-1
5.183097866E0,5.500456095E-1,-7.568694115E0,1.156985760E0
5.193097866E0,2.941665053E-1,-5.796502590E0,1.674835324E0
5.203097866E0,3.249967992E-1,-3.950834274E0,1.563148737E0
5.213097866E0,5.491425395E-1,-7.590093613E-1,1.845446229E-1
5.223097832E0,9.001999497E-1,3.533449173E0,-2.575140953E0
5.233097832E0,7.714680433E-1,9.057135582E0,-8.122588158E0
5.243097832E0,8.596279621E-1,1.245090389E1,-1.089591599E1
5.253097832E0,8.882982135E-1,1.677195549E1,-1.103054142E1
5.263097832E0,1.877539754E-1,2.074377251E1,-4.914214134E0
5.273097832E0,4.351648688E-2,2.710554886E1,1.032926750E1
5.283097832E0,1.869505644E-1,2.861658096E1,1.235131264E1
5.293097832E0,-4.949783683E-1,3.010098076E1,1.409910393E1
5.303097832E0,-1.009562612E-1,2.905588722E1,1.075984478E1
5.313097832E0,1.561412096E0,2.432820511E1,3.289454460E0
5.323097832E0,1.724228859E0,2.264834404E1,2.145571232E0
5.333097832E0,1.995490789E0,1.807634735E1,-1.629875898E-1
5.343097832E0,1.949083328E0,1.407527733E1,-1.618778467E0
5.353097832E0,9.399424791E-1,8.025656700E0,-1.868530035E0
5.363097832E0,8.027423620E-1,7.224460602E0,-1.613198042E0
5.373097832E0,6.918818951E-1,3.970392227E0,-7.308412194E-1
5.383097832E0,1.107533455E0,5.995655060E-1,-2.239888906E-2
5.393097832E0,1.131416082E0,-3.858770847E0,3.326736689E-1
5.403097832E0,9.768629074E-1,-6.532004356E0,3.018137813E-1
5.413097832E0,3.943839371E-1,-9.679460526E0,-5.708092451E-2
5.423097832E0,-4.826172292E-1,-1.242702389E1,-9.395131469E-1
5.433097832E0,-1.167297840E0,-1.425472736E1,-2.141415119E0
5.443097832E0,-1.112605572E0,-1.505474854E1,-2.670227528E0
5.453097832E0,-4.000809789E-1,-1.486180687E1,-2.371108294E0
5.463097832E0,1.785758138E-1,-1.433151627E1,-1.704903603E0
5.473097832E0,6.328265071E-1,-1.330654144E1,-1.198811769E0
5.483097832E0,7.057885528E-1,-1.285247135E1,-1.252428770E0
5.493097832E0,4.111948013E-1,-1.160510826E1,-1.438090444E0
5.503097832E0,1.171525270E-1,-1.060409737E1,-1.475815535E0
5.513097832E0,-2.687035501E-1,-9.543404579E0,-1.103211403E0
5.523097865E0,-2.809615731E-1,-9.488468170E0,-1.005824208E0
5.533097865E0,-3.680605888E-1,-9.505283356E0,-4.057324529E-1
5.543097865E0,-3.489691913E-1,-9.761279106E0,2.024105787E-1
5.553097865E0,4.404632747E-1,-1.034035683E1,3.545820713E-1
5.563097898E0,5.950529575E-1,-1.047181034E1,1.790249944E-1
5.573097898E0,7.126219273E-1,-1.079736710E1,-2.936216891E-1
5.583097898E0,5.507218838E-1,-1.082360744E1,-7.594506145E-1
5.593097898E0,5.459934473E-1,-1.050011349E1,-1.178953171E0
5.603097898E0,5.434604287E-1,-1.022431755E1,-1.342318892E0
5.613097898E0,4.514397085E-1,-9.600959778E0,-1.051504612E0
5.623097898E0,3.752487302E-1,-8.751686096E0,-1.784884334E-1
5.633097898E0,-6.000587344E-2,-7.736358166E0,1.179143190E0
5.643097898E0,-3.007125258E-1,-7.072617531E0,1.645516753E0
5.653097898E0,-1.607356071E-1,-5.571880341E0,1.797287345E0
5.663097898E0,6.728549302E-2,-3.685255051E0,1.598494887E0
5.673097898E0,1.753673553E0,1.464521408E0,-1.864571095E0
5.683097898E0,2.412903070E0,3.107341766E0,-3.293042183E0
5.693097898E0,2.788013458E0,8.912865639E0,-9.426774025E0
5.703097898E0,1.696432829E0,1.497927570E1,-1.416548443E1
5.713097898E0,-7.639368176E-1,2.276251221E1,-8.294237137E0
5.723097898E0,-7.927137613E-1,2.450122643E1,-5.100782394E0
5.733097898E0,-9.941467047E-1,2.829016876E1,4.901584625E0
5.743097898E0,-1.107900143E0,3.183138275E1,1.314631939E1
5.753097898E0,-4.112316370E-1,3.093132019E1,1.856261826E1
5.763097664E0,8.510845900E-2,3.022742462E1,1.783605385E1
5.773097664E0,1.339765429E0,2.683248138E1,1.154467678E1
5.783097664E0,1.695591927E0,2.210771561E1,3.425944328E0
5.793097664E0,1.474325299E0,1.615307045E1,-4.635546207E0
5.803097664E0,9.975921512E-1,1.219868088E1,-8.522912979E0
5.813097664E0,7.377288938E-1,8.059514999E0,-8.913821220E0
5.823097630E0,6.476347446E-1,5.310614586E0,-6.577190399E0
5.833097630E0,7.676815391E-1,1.420957565E0,-2.392851353E0
5.843097630E0,7.733619213E-1,-1.318325996E0,2.144254446E-1
5.853097630E0,6.573948264E-1,-4.471276283E0,2.352818727E0
5.863097596E0,3.482201397E-1,-7.478038788E0,3.233333826E0
5.873097596E0,-5.914804339E-2,-1.151767540E1,2.450705528E0
5.883097596E0,-1.948553622E-1,-1.235513020E1,1.885062695E0
5.893097596E0,-2.869066596E-2,-1.430585289E1,-4.449790716E-2
5.903097596E0,4.103282094E-1,-1.543817997E1,-1.565294743E0
5.913097596E0,5.862818956E-1,-1.481337357E1,-3.132993698E0
5.923097629E0,6.538903117E-1,-1.449917316E1,-3.327795982E0
5.933097629E0,6.996206641E-1,-1.362724876E1,-3.398939848E0
5.943097629E0,5.746040344E-1,-1.259028244E1,-3.061198473E0
5.953097629E0,-8.964081109E-2,-1.091959572E1,-2.062600613E0
5.963097629E0,-1.562491357E-1,-1.070598316E1,-1.872849107E0
5.973097629E0,-3.733890653E-1,-9.840892792E0,-1.035675168E0
5.983097629E0,-5.068064928E-1,-9.100655556E0,-3.488251269E-1
5.993097629E0,-1.431146264E-1,-9.012162209E0,-5.190318823E-2
6.003097629E0,3.375435472E-1,-9.144534111E0,-8.765137196E-2
6.013097629E0,7.316972017E-1,-9.396902084E0,-1.059802175E-1
6.023097629E0,8.763202429E-1,-9.742568016E0,-1.184434295E-1
6.033097629E0,7.579425573E-1,-1.016695404E1,-2.857435346E-1
6.043097629E0,7.790610790E-1,-1.038511372E1,-4.686269760E-1
6.053097629E0,5.714917183E-1,-1.044965935E1,-7.633990049E-1
6.063097862E0,1.715609729E-1,-1.021931076E1,-1.014416099E0
6.073097862E0,-4.823544621E-1,-9.162476540E0,-1.177092075E0
6.083097862E0,-5.036184788E-1,-8.895178795E0,-1.173872471E0
6.093097862E0,-4.900491536E-1,-8.170040131E0,-1.048539400E0
6.103097862E0,-2.623109221E-1,-7.243414879E0,-6.848440170E-1
6.113097862E0,-1.419803500E-2,-4.738800526E0,8.212053776E-1
6.123097862E0,1.940644681E-1,-3.861167908E0,8.459376097E-1
6.133097862E0,9.556362629E-1,-4.172668457E-1,-3.286988735E-1
6.143097862E0,1.335963726E0,4.953267097E0,-3.591513634E0
6.153097862E0,-9.462319613E-1,1.670116806E1,-1.365753937E1
6.163097862E0,-1.790633082E0,1.845160675E1,-1.520671368E1
6.173097862E0,-4.356698990E0,2.514593697E1,-1.672408676E1
6.183097862E0,-2.145269394E0,3.058606720E1,-8.823313713E0
6.193097862E0,2.289013147E0,3.584022141E1,7.427422523E0
6.203097962E0,2.565956354E0,3.638523865E1,1.684969902E1
6.213097962E0,2.562299728E0,3.641741180E1,1.665685654E1
6.223097928E0,4.246626377E0,2.850695419E1,2.124993134E1
6.233097928E0,3.782535076E0,2.109155273E1,1.248656845E1
6.243097928E0,3.977706909E0,1.664973068E1,6.019529819E0
6.253097928E0,2.955712080E0,1.024143696E1,-3.265127182E0
6.263097928E0,1.134444237E0,5.486250877E0,-9.178822517E0
6.273097928E0,-7.774047852E-1,-3.975687027E-1,-1.009227943E1
6.283097928E0,-8.450675011E-1,-1.722025871E0,-8.859857559E0
6.293097928E0,-6.317530870E-1,-5.025127888E0,-5.264268398E0
6.303097928E0,-7.674641609E-1,-8.183633804E0,-2.699950457E0
6.313097928E0,-7.414785624E-1,-1.170987511E1,1.241670847E-1
6.323097928E0,-1.113193393E0,-1.234367466E1,5.079869628E-1
6.333097928E0,-1.874389410E0,-1.369669914E1,6.541641355E-1
6.343097928E0,-2.010014057E0,-1.435246277E1,2.445300817E-1
6.353097928E0,-1.276438951E0,-1.390835762E1,-1.804022193E0
6.363097928E0,-1.192002416E0,-1.383884811E1,-2.092971802E0
6.373097928E0,-1.053779960E0,-1.317551899E1,-3.228345394E0
6.383097928E0,-1.433632612E0,-1.234588718E1,-3.503446579E0
6.393097928E0,-1.561208248E0,-1.136135864E1,-2.966286182E0
6.403097928E0,-1.086442709E0,-1.057150459E1,-2.330126286E0
6.413097928E0,-2.188081741E-1,-9.828262329E0,-1.427086234E0
6.423097928E0,2.815890312E-1,-9.424186707E0,-6.046288610E-1
6.433097928E0,5.496665239E-1,-9.247030258E0,2.054202557E-1
6.443097928E0,9.019631147E-1,-9.208517075E0,7.632640004E-1
6.453097928E0,1.056199193E0,-9.344857216E0,1.172311306E0
6.463097928E0,1.141513109E0,-9.730369568E0,1.338237047E0
6.473097928E0,1.034203649E0,-9.898270607E0,3.363251686E-1
6.483097928E0,9.510980844E-1,-1.001358318E1,2.286515236E-1
6.493097928E0,7.075546980E-1,-1.023843956E1,2.839434147E-2
6.503097828E0,3.610682189E-1,-1.045512581E1,-2.621173859E-2
6.513097828E0,-1.414981484E-2,-1.019162655E1,1.111164093E-1
6.523097861E0,9.542611241E-2,-1.007034492E1,1.185088754E-1
6.533097861E0,9.937521219E-1,-9.433206558E0,5.502426028E-1
6.543097861E0,1.424103737E0,-8.623164177E0,1.101213574E0
6.553097861E0,7.485013604E-1,-6.441334724E0,2.390081406E0
6.563097894E0,5.501181483E-1,-5.924305916E0,2.515614510E0
6.573097894E0,-4.550972581E-2,-3.316370487E0,2.976421833E0
6.583097894E0,-7.026929855E-1,8.782196045E-2,2.816704512E0
6.593097894E0,-4.111988842E-1,5.612275124E0,-2.311658382E0
6.603097894E0,-6.736395359E-1,1.080850220E1,-8.105587959E0
6.613097894E0,-1.286061287E0,1.754223442E1,-1.336635590E1
6.623097894E0,-1.261011600E0,2.273481560E1,-1.073461246E1
6.633097894E0,2.336619854E0,2.694677734E1,2.551088333E0
6.643097894E0,5.165706635E0,2.921837616E1,1.026559067E1
6.653097894E0,6.701920986E0,3.211346436E1,1.195499039E1
6.663097894E0,6.657841206E0,3.212744904E1,1.186612797E1
6.673097894E0,6.399238110E0,2.595708466E1,3.695460796E0
6.683097894E0,6.004895210E0,2.402515602E1,3.480407238E0
6.693097894E0,4.712758541E0,1.799499893E1,2.399354458E0
6.703097894E0,3.267907619E0,1.334783840E1,2.446136475E-1
6.713097894E0,1.093409657E-1,7.045797348E0,-2.994094372E0
6.723097894E0,-2.911182046E-1,6.259255409E0,-3.106321335E0
6.733097894E0,-7.725430131E-1,3.521456718E0,-3.206801891E0
6.743097894E0,9.571050107E-2,1.336799622E0,-2.599932194E0
6.753097894E0,1.020978615E-1,-2.568500519E0,-4.918360114E-1
6.763097894E0,7.273820043E-2,-3.237747669E0,-2.352122068E-1
6.773097894E0,2.680097222E-1,-6.117718697E0,1.166290164E0
6.783097894E0,3.050643206E-1,-8.036964417E0,1.815671206E0
6.793097894E0,3.132423759E-2,-1.035464573E1,7.337356806E-1
6.803097894E0,-3.848764002E-1,-1.201388359E1,-1.029788494E0
6.813097894E0,-6.714417934E-1,-1.339660168E1,-3.735345840E0
6.823097860E0,-1.500545502E0,-1.362176323E1,-4.147575378E0
6.833097860E0,-1.167641521E0,-1.346479988E1,-3.854802132E0
6.843097860E0,-1.868874669E0,-1.390554047E1,-3.419233322E0
6.853097860E0,-2.448068619E0,-1.370262337E1,-2.698257685E0
6.863097826E0,-2.248120546E0,-1.308377457E1,-1.764779806E0
6.873097826E0,-8.831889033E-1,-1.147051048E1,-9.583458900E-1
6.883097826E0,-4.434747100E-1,-1.102061367E1,-9.837076664E-1
6.893097826E0,5.204933882E-1,-1.011816978E1,-1.204853892E0
6.903097826E0,8.402028680E-1,-9.361461639E0,-1.672568560E0
6.913097826E0,-4.100298285E-1,-9.068261147E0,-1.361980438E0
6.923097859E0,-4.531003535E-1,-9.082724571E0,-1.291822076E0
6.933097859E0,-8.805612326E-1,-9.594485283E0,-8.459078074E-1
6.943097859E0,2.037780583E-1,-9.359171867E0,-6.996651292E-1
6.953097859E0,1.227545664E-1,-9.949870110E0,-8.592219949E-1
6.963097859E0,1.630108804E-1,-9.958652496E0,-9.026052952E-1
6.973097859E0,3.174538612E-1,-9.758337021E0,-7.087836266E-1
6.983097859E0,1.595119387E-1,-9.393441200E0,-5.974018574E-2
6.993097859E0,-8.945786208E-2,-8.650875092E0,9.846394062E-1
7.003097859E0,-7.527443767E-2,-8.051239967E0,1.466729641E0
7.013097859E0,1.273144186E-1,-7.096111298E0,1.365003586E0
7.023097859E0,2.770119309E-1,-5.349013805E0,8.888350725E-1
7.033097859E0,7.485396266E-1,-2.166169167E0,-3.083554506E-1
7.043097859E0,1.491920590E0,9.897432327E-1,-2.165466785E0
7.053097859E0,2.571020603E0,6.451098442E0,-5.402928352E0
7.063097859E0,1.413629055E0,1.257276821E1,-9.555488586E0
7.073097825E0,-1.741284251E0,2.216310120E1,-8.464238167E0
7.083097425E0,-1.672262192E0,2.217290115E1,-8.530150414E0
7.093097425E0,-2.115989625E-1,2.661837769E1,1.383561850E0
7.103097425E0,1.715847135E0,3.025146866E1,1.108020973E1
7.113097425E0,1.881203413E0,3.074013519E1,1.754904747E1
7.123097425E0,1.823133111E0,2.971818733E1,1.797439194E1
7.133097425E0,1.948367596E0,2.645381165E1,1.573537064E1
7.143097425E0,1.985157132E0,2.199179077E1,9.479428291E0
7.153097425E0,1.697039247E0,1.283680534E1,-2.489771605E0
7.163097425E0,1.583312273E0,1.165558529E1,-3.673965454E0
7.173097425E0,1.073791623E0,7.733468056E0,-7.150975227E0
7.183097425E0,8.101003170E-1,4.605305672E0,-7.427430153E0
7.193097425E0,9.223001003E-1,1.251888275E0,-4.809817791E0
7.203097425E0,1.426891327E0,-5.571680069E-1,-2.537459135E0
7.213097425E0,2.022612572E0,-2.600711346E0,8.211760521E-1
7.223097391E0,1.412347317E0,-4.632549763E0,3.345704079E0
7.233097391E0,2.609200478E-1,-7.223670483E0,3.256061792E0
7.243097391E0,-7.226674557E-1,-9.236877441E0,1.887895823E0
7.253097391E0,-1.610753179E0,-1.128824425E1,-3.176128268E-1
7.263097391E0,-1.992657304E0,-1.295460987E1,-2.597694397E0
7.273097391E0,-1.480913401E0,-1.438640976E1,-4.776192188E0
7.283097391E0,-1.284914970E0,-1.452070999E1,-4.864939213E0
7.293097391E0,-4.948942065E-1,-1.441721916E1,-4.641735077E0
7.303097391E0,2.106856555E-1,-1.390600586E1,-3.669440269E0
7.313097391E0,4.132242203E-1,-1.267406940E1,-2.798254251E0
7.323097391E0,4.409615695E-1,-1.249636841E1,-2.824311018E0
7.333097391E0,4.378022552E-1,-1.174814701E1,-2.895272732E0
7.343097391E0,3.325222135E-1,-1.094464016E1,-2.734787941E0
7.353097391E0,-6.635659933E-1,-9.882467270E0,-1.941740751E0
7.363097391E0,-6.668544412E-1,-9.789899826E0,-1.732564926E0
7.373097424E0,-4.881888926E-1,-9.584609985E0,-1.062349200E0
7.383097824E0,-1.331280768E-1,-9.532126427E0,-6.021580696E-1
7.393097824E0,9.046733379E-2,-9.703834534E0,-2.786503434E-1
7.403097824E0,2.566781640E-1,-9.905926704E0,-6.626373529E-2
7.413097824E0,8.122404814E-1,-1.014572525E1,6.976377964E-2
7.423097824E0,1.423503399E0,-1.008335209E1,2.708833218E-1
7.433097824E0,1.598431826E0,-1.020440292E1,7.449462414E-1
7.443097824E0,1.701061368E0,-1.007850838E1,6.641618013E-1
7.453097824E0,1.582116365E0,-9.680112839E0,3.206593990E-1
7.463097824E0,1.426370859E0,-9.239236832E0,-5.079845786E-1
7.473097824E0,1.136650801E0,-7.565522194E0,-2.364133596E-1
7.483097824E0,9.487425089E-1,-6.836563110E0,-6.886017323E-2
7.493097824E0,6.441066265E-1,-3.719988823E0,-7.910370827E-3
7.503097824E0,3.275991082E-1,8.759880066E-2,-7.142249942E-1
7.513097824E0,2.431880087E-1,7.814098358E0,-3.492651701E0
7.523097857E0,5.101445317E-2,9.648090363E0,-4.141357422E0
7.533097857E0,-1.423000991E-1,1.413179016E1,-5.160131931E0
7.543097857E0,5.870175362E-1,1.808911514E1,-4.189135551E0
7.553097857E0,1.353100777E0,2.386997604E1,6.433165550E0
7.563097490E0,1.360284567E0,2.390369987E1,6.276255608E0
7.573097490E0,2.440030813E0,3.007794952E1,1.312047482E1
7.583097490E0,9.292603135E-1,3.244259644E1,1.406504822E1
7.593097490E0,1.976756603E-1,3.134291840E1,1.161784935E1
7.603097490E0,6.967568398E-1,2.909521484E1,9.574803352E0
7.613097490E0,1.681910038E0,2.443426132E1,6.181336880E0
7.623097490E0,2.080085516E0,1.999903488E1,3.399037600E0
7.633097490E0,2.069385052E0,1.439085197E1,2.351355553E-2
7.643097490E0,1.697234988E0,1.117686081E1,-1.389297009E0
7.653097490E0,1.177679539E0,7.673733711E0,-2.164809465E0
7.663097490E0,1.644103408E0,4.500185013E0,-2.047887087E0
7.673097490E0,1.904006481E0,-3.910541534E-1,1.957786083E-1
7.683097490E0,1.866268158E0,-1.374358177E0,9.602683783E-1
7.693097490E0,1.738906860E0,-3.802287102E0,2.395729542E0
7.703097490E0,1.561941624E0,-6.251417637E0,2.577759743E0
7.713097490E0,8.928303123E-1,-9.485202789E0,8.008687496E-1
7.723097490E0,7.444483042E-1,-1.006111336E1,3.443862200E-1
7.733097490E0,4.022080600E-1,-1.191248226E1,-1.272418261E0
7.743097490E0,-8.907499909E-2,-1.338774776E1,-2.995381832E0
7.753097490E0,-4.800026417E-1,-1.456129074E1,-4.333323956E0
7.763097123E0,-5.296618938E-1,-1.457201576E1,-4.250234127E0
7.773097123E0,-7.408838272E-1,-1.432664871E1,-4.541889191E0
7.783097123E0,-1.610474735E-1,-1.364118004E1,-4.597749710E0
7.793097123E0,3.476914763E-1,-1.294173241E1,-3.847946644E0
7.803097123E0,-1.692316681E-1,-1.210856342E1,-2.793858051E0
7.813097123E0,-5.873863101E-1,-1.117845821E1,-1.981820822E0
7.823097089E0,-4.201540351E-1,-1.061332798E1,-2.014562130E0
7.833097089E0,-4.637041390E-1,-1.014522457E1,-2.630803347E0
7.843097089E0,-2.791206241E-1,-9.909469604E0,-2.252250671E0
7.853097089E0,4.180021286E-1,-9.851803780E0,-1.417057633E0
7.863097455E0,4.774857461E-1,-1.022466469E1,-1.084823489E0
7.873097455E0,5.247020721E-2,-1.044522667E1,-1.418132544E0
7.883097455E0,-3.501373529E-2,-1.055578804E1,-1.458645701E0
7.893097455E0,-6.553209424E-1,-1.042620087E1,-6.671803594E-1
7.903097455E0,-1.247677803E0,-9.663297653E0,6.434447765E-1
7.913097455E0,-1.824538708E-1,-8.873218536E0,-8.271455765E-2
7.923097455E0,3.184808493E-1,-8.669216156E0,-2.222089767E-1
7.933097455E0,1.205832720E0,-8.116392136E0,-2.501865625E-1
7.943097455E0,1.741124392E0,-7.385099411E0,-8.034377098E-1
7.953097455E0,1.733922482E0,-5.245066166E0,-2.687182188E0
7.963097455E0,1.514744043E0,-4.406367302E0,-2.890422106E0
7.973097455E0,5.638759732E-1,-1.272279739E0,-3.678684473E0
7.983097455E0,6.089212894E-1,3.021352768E0,-3.906024933E0
7.993097455E0,1.036877513E0,8.711488724E0,-3.565659523E0
8.003097455E0,1.198008299E0,1.290361881E1,-3.399172306E0
8.013097455E0,7.644166946E-1,1.690900993E1,-2.642971992E0
8.023097455E0,-8.232315779E-1,1.976564789E1,-7.957606316E-1
8.033097455E0,-2.238044739E0,2.210495186E1,9.810392857E-1
8.043097455E0,-2.143249750E0,2.309195328E1,2.194705725E0
8.053097455E0,-1.455127716E0,2.376547623E1,3.189698458E0
8.063097821E0,-1.039165378E0,2.324690247E1,4.786113262E0
8.073097821E0,-1.944824219E0,2.029719925E1,7.789890766E0
8.083097821E0,-1.960947514E0,1.919448853E1,8.168673515E0
8.093097821E0,-1.601197481E0,1.616011047E1,7.862378597E0
8.103097821E0,-8.758039474E-1,1.292697620E1,5.759998322E0
8.113097821E0,-6.339308023E-1,7.819881439E0,1.956023693E0
8.123097821E0,-6.456040144E-1,6.727957726E0,1.076017857E0
8.133097821E0,-3.070049286E-1,4.271476746E0,-7.840549946E-1
8.143097821E0,3.704831600E-1,2.063430786E0,-1.674354672E0
8.153097821E0,2.009507418E-1,-1.057356834E0,-2.616844893E0
8.163097821E0,1.484138966E-1,-1.428387642E0,-2.722390890E0
8.173097821E0,-9.243100882E-1,-4.528979301E0,-3.398519516E0
8.183097821E0,1.636437774E0,-4.604345798E0,-3.232109308E0
8.193097821E0,4.119018555E0,-5.962536812E0,-1.862047672E0
8.203097821E0,3.412539721E0,-6.779879570E0,-1.640815020E0
8.213097821E0,2.213894367E0,-8.204528809E0,-2.357023239E0
8.223097821E0,-4.062968493E-1,-9.845823288E0,-2.984992027E0
8.233097821E0,-1.472014666E0,-1.074593925E1,-2.958644152E0
8.243097821E0,-6.206731796E-1,-1.098561478E1,-2.379666328E0
8.253097821E0,3.386225998E-1,-1.069362736E1,-3.143816948E0
8.263097821E0,3.398977518E-1,-1.070018673E1,-3.487767220E0
8.273097821E0,-6.181553006E-1,-1.041683865E1,-2.924345970E0
8.283097821E0,-3.534703255E-1,-1.023928738E1,-2.620029926E0
8.293097821E0,7.727813721E-2,-9.976198196E0,-1.722578049E0
8.303097821E0,-1.546811342E0,-1.081739998E1,-1.001173496E0
8.313097821E0,-4.787933826E-2,-1.073617840E1,-9.832141399E-1
8.323097421E0,1.104158401E0,-1.034814453E1,-9.241327047E-1
8.333097421E0,2.197597027E0,-1.003530216E1,-1.372500777E0
8.343097954E0,4.689406395E0,-8.056103706E0,-1.458457589E0
8.353097954E0,4.323540688E0,-7.695883751E0,-3.064466476E0
8.363097954E0,3.543454409E0,-7.940700531E0,-3.351291656E0
8.373097954E0,-3.792277575E0,-1.203445625E1,-4.554663658E0
8.383097887E0,-1.474753380E0,-1.108347893E1,-5.422837257E0
8.393097887E0,-3.318731189E-1,-1.100018597E1,-3.857721329E0
8.403097887E0,-6.768585443E-1,-1.050113773E1,-3.851865292E0
8.413097887E0,-2.216480732E0,-1.009177494E1,-3.091215372E0
8.423097887E0,-3.796565771E0,-9.847402573E0,-1.759869695E0
8.433097887E0,-1.725113273E0,-6.554857731E0,1.940372944E0
8.443097887E0,6.505942822E0,-6.198368073E-1,7.405284882E0
8.453097887E0,2.892658710E0,5.570449829E0,3.551281691E0
8.463098087E0,-6.278139353E-1,8.705835342E0,-2.334514856E0
8.473098087E0,1.132674885E1,2.114204788E1,-1.485358238E1
8.483098087E0,9.606151581E0,2.053133774E1,-1.507750607E1
8.493098087E0,3.476398468E0,1.860724831E1,8.745305538E-1
8.503098087E0,-1.156226397E0,1.986179161E1,-4.273519516E-1
8.513098087E0,-5.883291245E0,1.873356438E1,8.355726242E0
8.523098120E0,-6.101217747E0,1.847066879E1,9.002291679E0
8.533098120E0,-6.223901749E0,2.049518967E1,7.797116756E0
8.543098120E0,-2.180948496E0,2.148782349E1,7.859090328E0
8.553098120E0,6.061185360E0,2.283351517E1,6.917307854E0
8.563098153E0,6.666789055E0,2.239071274E1,6.648567200E0
8.573098153E0,6.626979828E0,1.963746262E1,5.318176746E0
8.583098153E0,4.702289104E0,1.509444714E1,3.277223349E0
8.593098153E0,1.454231381E0,1.043877411E1,9.965050220E-1
8.603098153E0,4.014706910E-1,7.913538933E0,-8.553495407E-1
8.613098153E0,9.275491238E-1,5.100573540E0,-1.928531289E0
8.623098553E0,6.173466444E-1,2.753068924E0,-2.179378510E0
8.633098553E0,2.414931804E-1,1.477499008E-1,-2.276414156E0
8.643098019E0,1.282742023E-1,-1.725886822E0,-1.858239651E0
8.653098019E0,2.713002861E-1,-3.710309029E0,-1.143713832E0
8.663098019E0,6.069006324E-1,-5.692940712E0,-6.877542734E-1
8.673098019E0,1.840150952E-1,-9.161274910E0,-8.456504345E-1
8.683098085E0,-1.431809664E-1,-9.744112015E0,-1.093079090E0
8.693098085E0,-5.771248341E-1,-1.075964069E1,-2.245903969E0
8.703098085E0,-4.672822952E-1,-1.152098846E1,-3.922375679E0
8.713098085E0,-1.340628982E0,-1.269913673E1,-5.272204399E0
8.723098085E0,-1.409016252E0,-1.268173885E1,-5.172187805E0
8.733098085E0,-1.044466376E0,-1.243786144E1,-4.518228531E0
8.743098085E0,-9.179577231E-1,-1.195823288E1,-3.776753426E0
8.753098085E0,-7.946116328E-1,-1.069453526E1,-2.993593693E0
8.763097885E0,-7.689257264E-1,-1.046171761E1,-2.836280346E0
8.773097885E0,-7.335381508E-1,-9.657457352E0,-2.280529737E0
8.783097885E0,-9.306634665E-1,-9.674051285E0,-2.181423903E0
8.793097885E0,-1.295159936E0,-9.484736443E0,-1.062960148E0
8.803097885E0,-8.916563392E-1,-9.059061050E0,-1.106523395E0
8.813097885E0,-5.600482225E-1,-8.930519104E0,-1.981584787E0
8.823097851E0,-3.444005847E-1,-9.265149117E0,-7.081063271E0
8.833097851E0,2.890090466E0,-8.607769012E0,-3.877597332E0
8.843097851E0,1.577519655E0,-9.408545494E0,-1.917791367E0
8.853097851E0,3.804010153E-1,-9.628002167E0,-3.449940681E-2
8.863097817E0,-2.442012578E-1,-9.098365784E0,4.032728672E-1
8.873097817E0,4.451841712E-1,-8.561540604E0,1.066731691E0
8.883097817E0,7.584057450E-1,-8.759849548E0,5.902256966E-1
8.893097817E0,1.036106586E0,-6.904554844E0,-2.332301617E0
8.903097817E0,2.503316879E0,-5.923576832E0,-2.564499140E0
