"Time (s)","Gyroscope x (rad/s)","Gyroscope y (rad/s)","Gyroscope z (rad/s)"
1.621173700E-2,7.346417904E-1,-2.577087879E-1,2.588541433E-2
2.812065500E-2,7.346417904E-1,-2.577087879E-1,2.588541433E-2
3.813365500E-2,7.346417904E-1,-2.577087879E-1,2.588541433E-2
4.813965500E-2,7.346417904E-1,-2.577087879E-1,2.588541433E-2
5.814365500E-2,6.375142336E-1,-2.528218627E-1,5.215261877E-2
6.814665500E-2,5.971971154E-1,-2.644282877E-1,5.032002553E-2
7.814905500E-2,5.458844304E-1,-2.558761835E-1,3.260493279E-2
8.815105500E-2,5.073999166E-1,-2.607631087E-1,8.399396902E-4
9.815276900E-2,4.793001413E-1,-2.931389511E-1,-2.359467000E-2
1.081542690E-1,4.334852397E-1,-3.261256814E-1,-3.214678168E-2
1.181556020E-1,3.766747713E-1,-3.468950987E-1,-4.253149405E-2
1.281568020E-1,3.442989290E-1,-3.804926872E-1,-4.986187443E-2
1.381578920E-1,3.589596748E-1,-4.165337384E-1,-6.940956414E-2
1.481586420E-1,3.870594800E-1,-4.482987225E-1,-1.060614809E-1
1.581598720E-1,3.815616965E-1,-4.629594982E-1,-1.451568604E-1
1.681607290E-1,3.278055489E-1,-4.360814393E-1,-1.720349193E-1
1.781615950E-1,2.667190433E-1,-3.878230751E-1,-1.854739636E-1
1.881623450E-1,2.227367461E-1,-3.462842405E-1,-1.921934783E-1
1.981630500E-1,1.915826052E-1,-3.071888685E-1,-1.891391575E-1
2.081637160E-1,1.677588671E-1,-2.705369592E-1,-1.763109863E-1
2.181643470E-1,1.500437707E-1,-2.320524305E-1,-1.549306959E-1
2.281649970E-1,1.488220394E-1,-2.051743716E-1,-1.457677186E-1
2.381655680E-1,1.598176211E-1,-1.673007160E-1,-1.524872333E-1
2.481661130E-1,1.854739636E-1,-1.129337102E-1,-1.695914567E-1
2.581675040E-1,2.245693356E-1,-4.634939879E-2,-1.854739636E-1
2.681680040E-1,2.801580727E-1,1.298088697E-3,-1.952477992E-1
2.781684840E-1,3.406337202E-1,3.306308016E-2,-1.909717470E-1
2.881689450E-1,4.017202556E-1,5.077817291E-2,-1.738675237E-1
2.981693890E-1,4.426482320E-1,6.360634416E-2,-1.329395473E-1
3.081698530E-1,4.267657399E-1,7.704538107E-2,-7.612907887E-2
3.181702660E-1,3.614031374E-1,9.231700748E-2,-1.748601720E-2
3.281706660E-1,2.612212598E-1,1.149190217E-1,3.504839167E-2
3.381706320E-1,1.579850167E-1,1.265254617E-1,7.292203605E-2
3.481706320E-1,4.680754989E-2,1.344667077E-1,9.063713253E-2
3.581706320E-1,-7.903069258E-2,1.497383416E-1,9.308059514E-2
3.681706320E-1,-2.134210467E-1,1.698969007E-1,8.758280426E-2
3.781706320E-1,-3.380375504E-1,1.961641014E-1,8.147415519E-2
3.881706320E-1,-4.467715621E-1,2.303725630E-1,7.353290170E-2
3.981706650E-1,-5.402339697E-1,2.792417705E-1,5.642867833E-2
4.081706650E-1,-6.074291468E-1,3.360522389E-1,3.627012298E-2
4.181706650E-1,-6.544657350E-1,3.891975284E-1,1.305724494E-2
4.281706650E-1,-6.837872863E-1,4.392884672E-1,-7.101308554E-3
4.381702650E-1,-6.764569283E-1,4.484514594E-1,-2.054034360E-2
4.481703650E-1,-6.562983394E-1,3.940844536E-1,-1.198823005E-2
4.581702310E-1,-6.520223022E-1,3.293327391E-1,1.450804994E-3
4.681702640E-1,-6.434701681E-1,2.578614950E-1,7.559457328E-3
4.781702300E-1,-6.355289221E-1,2.077705413E-1,6.948592141E-3
4.881698630E-1,-6.404158473E-1,1.698969007E-1,5.115996581E-3
4.981698630E-1,-6.898959279E-1,1.582904607E-1,5.726861767E-3
5.081698630E-1,-8.077929020E-1,2.132683247E-1,-7.712173741E-3
5.181698630E-1,-8.749880791E-1,2.480876446E-1,-2.359467000E-2
5.281698290E-1,-9.153051972E-1,2.651918828E-1,-3.397937864E-2
5.381698290E-1,-9.098074436E-1,2.627484202E-1,-4.069889709E-2
5.481698290E-1,-8.829293251E-1,2.493093759E-1,-4.925100878E-2
5.581691620E-1,-8.456665874E-1,2.438115925E-1,-6.146831438E-2
5.681691620E-1,-8.139016032E-1,2.511419654E-1,-7.490734756E-2
5.781691620E-1,-7.870234847E-1,2.596940994E-1,-9.445504099E-2
5.881691620E-1,-7.674758434E-1,2.645809948E-1,-1.030071527E-1
5.981691620E-1,-7.680866718E-1,2.621375620E-1,-9.323330969E-2
6.081691280E-1,-7.845800519E-1,2.212095708E-1,-7.124216110E-2
6.181691280E-1,-8.102363944E-1,1.753946841E-1,-3.581197560E-2
6.281691280E-1,-8.352818489E-1,1.326341182E-1,6.948592141E-3
6.381691280E-1,-8.365035653E-1,9.353873879E-2,3.382666409E-2
6.481691280E-1,-7.674758434E-1,6.727153808E-2,3.260493279E-2
6.581691280E-1,-6.624069810E-1,5.383250117E-2,1.916589774E-2
6.681691280E-1,-5.695554614E-1,5.627596006E-2,2.061670180E-3
6.781691610E-1,-5.029711723E-1,7.521278411E-2,-1.198823005E-2
6.881691610E-1,-4.534910917E-1,8.620835841E-2,-1.809688285E-2
6.981687940E-1,-4.046218693E-1,8.559749275E-2,-2.298380435E-2
7.081687940E-1,-3.557526469E-1,8.620835841E-2,-2.054034360E-2
7.181687940E-1,-3.099377453E-1,8.437576145E-2,-6.490443368E-3
7.281687940E-1,-2.531272769E-1,7.154759020E-2,6.948592141E-3
7.381687940E-1,-2.005928755E-1,7.338018715E-2,1.794416644E-2
7.481687940E-1,-1.621083617E-1,8.865182102E-2,1.244637929E-2
7.581687940E-1,-1.395063549E-1,9.781479836E-2,-2.542726509E-2
7.681687600E-1,-1.211803928E-1,1.069777757E-1,-8.895725012E-2
7.781687600E-1,-1.217912585E-1,1.130864322E-1,-1.427133977E-1
7.881696260E-1,-1.572214365E-1,1.466840208E-1,-1.714240611E-1
7.981696260E-1,-1.724930704E-1,1.912771761E-1,-1.683697402E-1
8.081696260E-1,-1.529453844E-1,1.900554448E-1,-1.402699351E-1
8.181696260E-1,-8.208502084E-2,1.717294902E-1,-8.956811577E-2
8.281696260E-1,-3.283400787E-3,1.289689243E-1,-1.382082608E-2
8.381696590E-1,4.925100878E-2,1.161407530E-1,5.093089119E-2
8.481696590E-1,8.712465316E-2,1.081995070E-1,9.308059514E-2
8.581694590E-1,1.072832122E-1,1.277471930E-1,9.980010986E-2
8.681694920E-1,1.121701300E-1,1.637882441E-1,5.948300287E-2
8.781695250E-1,1.164461896E-1,1.937206388E-1,-2.214386594E-3
8.881695250E-1,1.164461896E-1,1.973858327E-1,-5.902485549E-2
8.981695250E-1,1.078940704E-1,2.089922726E-1,-9.567677230E-2
9.081695250E-1,7.368562371E-2,2.193769813E-1,-1.060614809E-1
9.181695250E-1,2.787072770E-2,2.205987126E-1,-7.857254148E-2
9.281695580E-1,-3.443752974E-2,2.059379518E-1,-2.787072770E-2
9.381695580E-1,-1.114065498E-1,2.102140039E-1,1.550070569E-2
9.481695910E-1,-1.541671157E-1,2.041053474E-1,5.520694703E-2
9.581695910E-1,-1.456149966E-1,1.790598780E-1,8.147415519E-2
9.681695910E-1,-1.071304902E-1,1.424079537E-1,8.880453557E-2
9.781698240E-1,-6.131559983E-2,1.136972904E-1,7.108944654E-2
9.881698240E-1,-4.665483162E-2,1.069777757E-1,3.871358559E-2
9.981701570E-1,-5.948300287E-2,9.842566401E-2,1.488984004E-2
1.008170157E0,-8.452847600E-2,8.315403014E-2,5.115996581E-3
1.018170157E0,-1.120174155E-1,6.604980677E-2,-9.544769302E-3
1.028170157E0,-9.980010986E-2,4.344778880E-2,-2.115120925E-2
1.038170557E0,-6.131559983E-2,2.084577642E-2,-2.481640130E-2
1.048170557E0,-3.321579844E-2,-5.345070967E-4,-3.397937864E-2
1.058170557E0,2.214386594E-3,-3.596469015E-2,-2.359467000E-2
1.068170557E0,-3.894265974E-3,-6.223189831E-2,3.894265974E-3
1.078170557E0,-3.016147204E-2,-8.055785298E-2,4.054617882E-2
1.088169990E0,-5.520694703E-2,-9.644035250E-2,6.253732741E-2
1.098169590E0,-6.436992437E-2,-8.116871864E-2,6.314819306E-2
1.108169323E0,-8.330674469E-2,-3.413209692E-2,3.932445124E-2
1.118169323E0,-1.077413559E-1,1.412625890E-2,1.000291854E-2
1.128169323E0,-1.309542358E-1,4.222606122E-2,-2.725986205E-2
1.138169289E0,-1.333976984E-1,5.627596006E-2,-8.651378751E-2
1.148169289E0,-1.437824070E-1,4.833471403E-2,-1.335504204E-1
1.158169489E0,-1.517236531E-1,-1.519527286E-2,-1.329395473E-1
1.168169455E0,-1.676061451E-1,-9.033169597E-2,-8.651378751E-2
1.178169421E0,-2.097558528E-1,-1.477530301E-1,-1.603521290E-3
1.188169421E0,-2.586250603E-1,-1.874592751E-1,9.063713253E-2
1.198169421E0,-2.806162238E-1,-2.106721550E-1,1.456149966E-1
1.208169421E0,-2.537381649E-1,-2.070069611E-1,1.566105783E-1
1.218169421E0,-1.871538460E-1,-1.776854247E-1,1.254564524E-1
1.228169387E0,-8.208502084E-2,-1.673007160E-1,6.681338698E-2
1.238168487E0,4.497495294E-2,-1.685224473E-1,6.948592141E-3
1.248168453E0,1.384373307E-1,-1.673007160E-1,-7.101308554E-3
1.258168453E0,1.964695305E-1,-1.624137908E-1,2.527454868E-2
1.268168453E0,2.520582676E-1,-1.648572534E-1,8.208502084E-2
1.278168186E0,3.045926690E-1,-1.477530301E-1,1.388954818E-1
1.288168186E0,3.723987341E-1,-1.282053441E-1,1.871538460E-1
1.298168219E0,4.579198658E-1,-1.208749637E-1,2.073123902E-1
1.308168252E0,5.135086179E-1,-1.190423667E-1,2.036471963E-1
1.318168252E0,5.342780352E-1,-1.239292845E-1,1.877647042E-1
1.328168252E0,5.147303343E-1,-1.257618815E-1,1.639409661E-1
1.338168252E0,4.725806117E-1,-1.343140006E-1,1.358411610E-1
1.348168252E0,4.579198658E-1,-1.715767831E-1,9.735664725E-2
1.358168252E0,4.646393657E-1,-2.015091777E-1,6.986771524E-2
1.368168252E0,4.560872614E-1,-1.972331107E-1,5.642867833E-2
1.378168252E0,4.347069860E-1,-1.850158125E-1,5.826127157E-2
1.388168318E0,4.176027477E-1,-1.758528352E-1,6.803511828E-2
1.398168718E0,3.943898678E-1,-1.514182240E-1,6.742425263E-2
1.408168984E0,3.754530549E-1,-1.361465901E-1,5.032002553E-2
1.418168984E0,3.577379584E-1,-1.398117840E-1,3.382666409E-2
1.428169017E0,3.479641080E-1,-1.538616866E-1,1.611157134E-2
1.438169017E0,3.528510332E-1,-1.831832081E-1,3.894265974E-3
1.448169017E0,3.803399801E-1,-2.344958931E-1,1.000291854E-2
1.458169017E0,4.145484269E-1,-2.906954885E-1,3.138320148E-2
1.468169017E0,4.493677318E-1,-3.132975101E-1,5.398521572E-2
1.478169017E0,4.896848500E-1,-3.187952936E-1,6.803511828E-2
1.488169017E0,5.367214680E-1,-3.059671223E-1,7.841982692E-2
1.498169017E0,5.758168697E-1,-2.772564590E-1,8.452847600E-2
1.508169050E0,6.124687791E-1,-2.442697436E-1,8.147415519E-2
1.518169050E0,6.448446512E-1,-2.161699384E-1,8.086328954E-2
1.528169050E0,6.717227101E-1,-1.837940812E-1,7.903069258E-2
1.538169950E0,6.918812394E-1,-1.679115891E-1,7.719809562E-2
1.548169950E0,6.839399934E-1,-1.495856196E-1,8.452847600E-2
1.558169950E0,6.576728225E-1,-1.416443735E-1,9.613491595E-2
1.568169950E0,6.259077787E-1,-1.569160074E-1,1.022435725E-1
1.578169950E0,6.014732122E-1,-1.880701333E-1,1.028544381E-1
1.588169950E0,5.800929070E-1,-2.271655202E-1,1.040761694E-1
1.598169916E0,5.574908853E-1,-2.680934966E-1,1.059087589E-1
1.608169882E0,5.354997516E-1,-3.065779805E-1,9.552405030E-2
1.618169882E0,5.177846551E-1,-3.310126066E-1,8.758280426E-2
1.628169882E0,5.220606923E-1,-3.621667325E-1,3.993531689E-2
1.638169882E0,5.165629387E-1,-3.798818290E-1,2.672535367E-3
1.648169882E0,4.823544621E-1,-3.994295001E-1,-2.237293869E-2
1.658169882E0,3.974441886E-1,-4.098142087E-1,-3.703370690E-2
1.668169915E0,2.917645276E-1,-4.024838507E-1,-5.474879593E-2
1.678169948E0,2.117411643E-1,-3.896556795E-1,-7.307475805E-2
1.688169948E0,1.732566506E-1,-3.572798073E-1,-8.956811577E-2
1.698169948E0,1.769218445E-1,-3.255148232E-1,-9.750936180E-2
1.708169948E0,2.007455975E-1,-3.023019433E-1,-8.895725012E-2
1.718169948E0,2.245693356E-1,-2.729803920E-1,-7.857254148E-2
1.728169914E0,2.441170216E-1,-2.296089679E-1,-6.146831438E-2
1.738169914E0,2.691625059E-1,-1.679115891E-1,-5.047274008E-2
1.748169914E0,3.192534447E-1,-1.049924642E-1,-5.291620269E-2
1.758169914E0,3.840051591E-1,-5.795583874E-2,-6.085744873E-2
1.768169914E0,4.493677318E-1,-2.802344225E-2,-7.246389240E-2
1.778169914E0,4.762458205E-1,-5.421428941E-3,-8.651378751E-2
1.788169914E0,4.719697535E-1,2.756529488E-2,-9.750936180E-2
1.798169914E0,4.579198658E-1,5.871942267E-2,-9.750936180E-2
1.808169880E0,4.450916946E-1,8.254316449E-2,-9.445504099E-2
1.818169880E0,4.365395904E-1,1.027017161E-1,-9.078984708E-2
1.828169880E0,4.206570685E-1,1.271363348E-1,-7.673994452E-2
1.838169880E0,3.901138306E-1,1.430188268E-1,-5.841398984E-2
1.848169880E0,3.333033621E-1,1.509600729E-1,-4.192062840E-2
1.858169880E0,2.526691258E-1,1.564578563E-1,-2.970332280E-2
1.868169880E0,1.469894499E-1,1.637882441E-1,-1.809688285E-2
1.878169880E0,8.933904581E-3,1.808924675E-1,-5.879578181E-3
1.888169880E0,-1.382846236E-1,2.028836161E-1,1.061378326E-2
1.898169880E0,-2.977204621E-1,2.071596831E-1,3.077233583E-2
1.908170046E0,-4.571562707E-1,2.120465934E-1,4.115704447E-2
1.918170046E0,-6.092617512E-1,2.126574665E-1,3.321579844E-2
1.928170079E0,-7.393760085E-1,2.224313021E-1,1.488984004E-2
1.938170079E0,-8.413904905E-1,2.358703464E-1,-1.626428775E-2
1.948170112E0,-9.098074436E-1,2.486985177E-1,-6.085744873E-2
1.958170112E0,-9.275225401E-1,2.505311072E-1,-1.011745557E-1
1.968170078E0,-9.000335932E-1,2.291508317E-1,-1.396590620E-1
1.978170044E0,-8.511643410E-1,1.998292953E-1,-1.659262776E-1
1.988170044E0,-8.053494692E-1,1.717294902E-1,-1.671480089E-1
1.998170044E0,-7.754170895E-1,1.527926624E-1,-1.378264725E-1
2.008170044E0,-7.686975598E-1,1.454622895E-1,-9.323330969E-2
2.018170044E0,-7.803040147E-1,1.521818042E-1,-5.352706835E-2
2.028170044E0,-7.967973351E-1,1.656208336E-1,-3.031418845E-2
2.038170044E0,-8.071820736E-1,1.595121920E-1,-2.176207490E-2
2.048170044E0,-8.041277528E-1,1.576795876E-1,-2.909245715E-2
2.058170044E0,-7.943539023E-1,1.729512215E-1,-6.818783283E-2
2.068170044E0,-7.607563138E-1,1.857793927E-1,-1.170570552E-1
2.078170044E0,-6.990588903E-1,1.766164154E-1,-1.549306959E-1
2.088170044E0,-6.129269004E-1,1.546252668E-1,-1.830305010E-1
2.098170044E0,-5.408447981E-1,1.448514163E-1,-2.001347244E-1
2.108170044E0,-5.420665741E-1,1.436296850E-1,-2.007455975E-1
2.118170044E0,-6.227007508E-1,1.619556546E-1,-1.830305010E-1
2.128170044E0,-7.344890833E-1,1.833359301E-1,-1.427133977E-1
2.138170044E0,-8.389470577E-1,1.876119822E-1,-8.651378751E-2
2.148170077E0,-8.865945339E-1,1.808924675E-1,-2.054034360E-2
2.158170077E0,-8.609381914E-1,1.582904607E-1,4.115704447E-2
2.168170077E0,-7.748062015E-1,1.271363348E-1,8.636107296E-2
2.178170110E0,-5.658903122E-1,7.582364976E-2,1.132391468E-1
2.188170110E0,-4.186717570E-1,5.383250117E-2,1.004109755E-1
2.198170110E0,-3.013856411E-1,5.688682571E-2,7.047858089E-2
2.208169943E0,-2.115884423E-1,8.254316449E-2,3.077233583E-2
2.218169943E0,-1.505019218E-1,1.039234474E-1,-2.214386594E-3
2.228169909E0,-1.217912585E-1,1.124755666E-1,-1.015563495E-2
2.238169909E0,-1.175151989E-1,9.781479836E-2,2.588541433E-2
2.248169875E0,-1.138500124E-1,4.772384837E-2,9.491318464E-2
2.258169875E0,-9.857837856E-2,-5.001459271E-2,1.700496078E-1
2.268169875E0,-7.414376736E-2,-1.410335153E-1,2.158645093E-1
2.278169875E0,-2.710714564E-2,-2.070069611E-1,2.152536362E-1
2.288169875E0,4.497495294E-2,-2.473240644E-1,1.724930704E-1
2.298169875E0,1.201113760E-1,-2.644282877E-1,1.132391468E-1
2.308169908E0,1.891391575E-1,-2.503784001E-1,4.360050708E-2
2.318169908E0,2.496148050E-1,-2.082286924E-1,-3.642284125E-2
2.328169908E0,2.984840274E-1,-1.361465901E-1,-1.231657043E-1
2.338169908E0,3.381902575E-1,-7.322747260E-2,-1.738675237E-1
2.348170141E0,3.614031374E-1,-1.214094646E-2,-1.671480089E-1
2.358170141E0,3.888920844E-1,2.023491077E-2,-1.249983013E-1
2.368170141E0,3.980550766E-1,4.283692688E-2,-6.391177326E-2
2.378170141E0,3.785073757E-1,8.193229884E-2,3.283400787E-3
2.388170141E0,3.339142203E-1,1.136972904E-1,6.559165567E-2
2.398170141E0,2.832123935E-1,1.051451787E-1,1.101848185E-1
2.408170141E0,2.141846269E-1,9.048441797E-2,1.297325045E-1
2.418170141E0,1.231657043E-1,7.826711237E-2,1.205695271E-1
2.428170174E0,3.886630014E-2,6.910412759E-2,8.513934165E-2
2.438170174E0,-3.199406713E-2,5.627596006E-2,4.848742858E-2
2.448170140E0,-1.101848185E-1,5.444336683E-2,1.672243699E-2
2.458170140E0,-2.091449946E-1,8.559749275E-2,-3.436116967E-3
2.468170140E0,-3.148246706E-1,1.234711409E-1,7.559457328E-3
2.480121576E0,-3.936263025E-1,1.405753642E-1,4.054617882E-2
2.490121576E0,-4.253912866E-1,1.344667077E-1,7.292203605E-2
2.500121576E0,-4.217261076E-1,1.399645060E-1,9.613491595E-2
2.510121609E0,-3.960697651E-1,1.509600729E-1,1.040761694E-1
2.520121609E0,-3.716351390E-1,1.656208336E-1,1.077413559E-1
2.530121609E0,-3.490331173E-1,1.662317067E-1,1.132391468E-1
2.540121609E0,-3.300963044E-1,1.479057521E-1,1.114065498E-1
2.550121609E0,-3.221550584E-1,1.240820065E-1,1.028544381E-1
2.560121609E0,-3.227659166E-1,9.476047009E-2,8.086328954E-2
2.570121609E0,-3.184898794E-1,4.466952011E-2,6.070473418E-2
2.580121609E0,-3.129920661E-1,8.628471754E-3,4.421137273E-2
2.590121609E0,-3.081051707E-1,7.635815564E-5,3.443752974E-2
2.600121609E0,-2.903900743E-1,1.840231568E-2,2.405281924E-2
2.610121575E0,-2.464077622E-1,1.718058437E-2,2.466368489E-2
2.620121575E0,-2.024254650E-1,-1.030835137E-2,4.787656292E-2
2.630121575E0,-1.694387496E-1,-2.741257846E-2,7.903069258E-2
2.640121575E0,-1.456149966E-1,-3.718642145E-2,1.114065498E-1
2.650121341E0,-1.205695271E-1,-2.985603921E-2,1.431715488E-1
2.660121341E0,-1.071304902E-1,-1.030835137E-2,1.553888470E-1
2.670121374E0,-9.796751291E-2,-1.756237587E-3,1.547779888E-1
2.680121407E0,-9.185886383E-2,-1.702786796E-2,1.480584592E-1
2.690121407E0,-9.002626687E-2,-7.567093521E-2,1.315651089E-1
2.700121407E0,-1.040761694E-1,-1.593594700E-1,1.150717437E-1
2.710121407E0,-1.346194297E-1,-2.228894532E-1,9.552405030E-2
2.720121407E0,-1.669952869E-1,-2.577087879E-1,7.108944654E-2
2.730121373E0,-1.743256748E-1,-2.705369592E-1,5.215261877E-2
2.740121373E0,-1.291216463E-1,-2.558761835E-1,5.093089119E-2
2.750121373E0,-4.787656292E-2,-2.216677219E-1,6.070473418E-2
2.760121373E0,6.391177326E-2,-1.813506186E-1,4.726569727E-2
2.770121373E0,1.811978966E-1,-1.373683214E-1,1.794416644E-2
2.780121373E0,2.575560510E-1,-7.567093521E-2,-2.359467000E-2
2.790121373E0,2.746602893E-1,-2.374738641E-2,-6.146831438E-2
2.800121373E0,2.624429762E-1,-4.810563754E-3,-8.040513843E-2
2.810121339E0,2.569451928E-1,-2.741257846E-2,-7.673994452E-2
2.820121339E0,2.581669390E-1,-6.162103266E-2,-5.658139288E-2
2.830121372E0,2.606103718E-1,-9.094256163E-2,-1.809688285E-2
2.840121372E0,2.709950805E-1,-1.068250611E-1,3.321579844E-2
2.850121372E0,3.082578778E-1,-1.043815985E-1,7.597636431E-2
2.860121372E0,3.699552715E-1,-8.239044994E-2,9.613491595E-2
2.870121372E0,4.414264858E-1,-4.879286140E-2,8.452847600E-2
2.880121372E0,5.012912750E-1,-1.153008174E-2,5.276348442E-2
2.890121372E0,5.379431844E-1,3.795000166E-2,1.488984004E-2
2.900121372E0,5.458844304E-1,7.460191846E-2,-1.931861416E-2
2.910121372E0,5.519931316E-1,7.948884368E-2,-3.459024429E-2
2.920121372E0,5.587126017E-1,5.199990422E-2,-3.092505224E-2
2.930121405E0,5.562691689E-1,1.107193250E-2,-2.176207490E-2
2.940121405E0,5.464953184E-1,-2.252565511E-2,-6.490443368E-3
2.950121038E0,5.379431844E-1,-4.085161164E-2,4.505131394E-3
2.960121038E0,5.275585055E-1,-3.596469015E-2,4.505131394E-3
2.970121004E0,5.232824683E-1,-7.864889689E-3,-6.490443368E-3
2.980120970E0,5.165629387E-1,2.267837152E-2,-2.359467000E-2
2.990120970E0,5.043455958E-1,3.795000166E-2,-4.375322163E-2
3.000120970E0,4.878522456E-1,3.733913973E-2,-6.269004941E-2
3.010120970E0,4.744132161E-1,7.406740915E-3,-8.468119800E-2
3.020120970E0,4.829653203E-1,-4.940372705E-2,-9.140071273E-2
3.030120970E0,4.902957082E-1,-9.644035250E-2,-8.590292186E-2
3.040120970E0,4.988478422E-1,-1.324813962E-1,-7.368562371E-2
3.050120970E0,5.092325211E-1,-1.544725448E-1,-5.474879593E-2
3.060120970E0,5.245041847E-1,-1.569160074E-1,-3.397937864E-2
3.070120870E0,5.422192812E-1,-1.630246639E-1,-7.101308554E-3
3.080120870E0,5.623778105E-1,-1.691333205E-1,2.405281924E-2
3.090120870E0,5.794820189E-1,-1.899027377E-1,5.093089119E-2
3.100120870E0,5.923101902E-1,-2.100612819E-1,6.192646548E-2
3.110120870E0,6.008623242E-1,-2.381610870E-1,5.765040591E-2
3.120120870E0,5.947536826E-1,-2.711478174E-1,4.237877578E-2
3.130120836E0,5.690973401E-1,-2.894737720E-1,1.855503209E-2
3.140120836E0,5.342780352E-1,-2.949715555E-1,-8.323038928E-3
3.150120836E0,5.043455958E-1,-3.090214431E-1,-2.848159149E-2
3.160120836E0,4.499786198E-1,-3.340669274E-1,-4.130976275E-2
3.170120836E0,3.681226671E-1,-3.609450161E-1,-4.130976275E-2
3.180120869E0,2.722168267E-1,-3.829361498E-1,-2.420553565E-2
3.190120869E0,1.763109863E-1,-3.975969255E-1,8.781188168E-3
3.200120869E0,1.078940704E-1,-4.128685594E-1,4.970915988E-2
3.210120869E0,6.024658307E-2,-4.079816341E-1,9.124799818E-2
3.220120869E0,2.542726509E-2,-3.811035454E-1,1.230129898E-1
3.230120835E0,4.008803144E-2,-3.413973153E-1,1.285107732E-1
3.240120835E0,1.207222417E-1,-3.065779805E-1,1.132391468E-1
3.250121201E0,2.312888503E-1,-2.699260712E-1,8.452847600E-2
3.260121201E0,3.394120038E-1,-2.344958931E-1,2.771801129E-2
3.270121201E0,4.035528600E-1,-1.703550518E-1,-3.886630014E-2
3.280121201E0,4.169918895E-1,-9.888381511E-2,-9.995282441E-2
3.290121201E0,3.723987341E-1,-3.474296257E-2,-1.482111812E-1
3.300121201E0,3.149773777E-1,-3.107776865E-2,-1.414916664E-1
3.310120934E0,2.813797891E-1,-5.123632401E-2,-1.152244583E-1
3.320120934E0,2.838232517E-1,-8.239044994E-2,-8.407033235E-2
3.330120934E0,3.076470196E-1,-8.361218125E-2,-6.452263892E-2
3.340120934E0,3.497967124E-1,-5.856670439E-2,-6.513350457E-2
3.350120934E0,4.145484269E-1,-2.130392566E-2,-7.185302675E-2
3.360120934E0,5.025130510E-1,1.290452853E-2,-8.895725012E-2
3.370121034E0,5.825363398E-1,4.894557595E-2,-1.201113760E-1
3.380121034E0,6.094144583E-1,1.198059469E-1,-1.500437707E-1
3.390121034E0,5.758168697E-1,1.729512215E-1,-1.750892550E-1
3.400121034E0,4.780784249E-1,2.132683247E-1,-1.781435758E-1
3.410121034E0,3.278055489E-1,2.291508317E-1,-1.482111812E-1
3.420121034E0,1.469894499E-1,2.364812046E-1,-8.895725012E-2
3.430121034E0,-3.016147204E-2,2.438115925E-1,-2.481640130E-2
3.440121034E0,-1.712713391E-1,2.425898612E-1,2.466368489E-2
3.450121034E0,-2.702315152E-1,2.425898612E-1,5.703954399E-2
3.460121034E0,-3.459787965E-1,2.511419654E-1,6.803511828E-2
3.470121034E0,-4.082870483E-1,2.639701366E-1,6.436992437E-2
3.480121000E0,-4.461607039E-1,2.682462037E-1,4.787656292E-2
3.490121000E0,-4.559345543E-1,2.670244575E-1,2.588541433E-2
3.500121000E0,-4.534910917E-1,2.609158158E-1,2.061670180E-3
3.510121033E0,-4.424955249E-1,2.535854280E-1,-2.176207490E-2
3.520121033E0,-4.186717570E-1,2.334268838E-1,-4.741841555E-2
3.530121033E0,-3.954588771E-1,2.041053474E-1,-7.368562371E-2
3.540121033E0,-3.875176311E-1,1.784490049E-1,-9.262244403E-2
3.550120633E0,-4.070653319E-1,1.637882441E-1,-1.017854214E-1
3.560120633E0,-4.522693455E-1,1.442405581E-1,-1.005636901E-1
3.570120633E0,-4.968625307E-1,1.350775808E-1,-9.628763795E-2
3.580120633E0,-5.292384028E-1,1.289689243E-1,-9.384417534E-2
3.590120633E0,-5.628359914E-1,1.277471930E-1,-1.030071527E-1
3.600120633E0,-5.829945207E-1,1.210276783E-1,-1.207222417E-1
3.610120899E0,-5.970444083E-1,1.063669100E-1,-1.304960847E-1
3.620120899E0,-6.269767880E-1,1.039234474E-1,-1.378264725E-1
3.630120899E0,-6.617961526E-1,1.179733500E-1,-1.439351290E-1
3.640120899E0,-6.831763983E-1,1.326341182E-1,-1.408807933E-1
3.650120899E0,-6.843981743E-1,1.589013189E-1,-1.292743534E-1
3.660120899E0,-6.721808314E-1,1.888337135E-1,-1.085049361E-1
3.670120932E0,-6.422484517E-1,1.790598780E-1,-8.956811577E-2
3.680120965E0,-5.970444083E-1,1.711186320E-1,-8.284860104E-2
3.690120965E0,-5.487860441E-1,1.827250719E-1,-7.979427278E-2
3.700120965E0,-5.109124184E-1,1.998292953E-1,-9.995282441E-2
3.710120965E0,-4.980842471E-1,2.315942794E-1,-1.347721517E-1
3.720120965E0,-5.194645524E-1,2.541962862E-1,-1.518763751E-1
3.730120965E0,-5.750532746E-1,2.548071742E-1,-1.469894499E-1
3.740120965E0,-6.483570933E-1,2.377029359E-1,-1.109483987E-1
3.750120965E0,-7.015023828E-1,1.931097806E-1,-6.635523587E-2
3.760120965E0,-7.405977249E-1,1.362993121E-1,-2.420553565E-2
3.770120965E0,-7.711409926E-1,9.048441797E-2,1.122464892E-2
3.780120965E0,-7.980191112E-1,6.116288155E-2,3.077233583E-2
3.790120998E0,-8.163450360E-1,4.222606122E-2,2.038762718E-2
3.800120998E0,-8.297840953E-1,5.688682571E-2,-1.320996135E-2
3.810120964E0,-8.303949237E-1,9.659306705E-2,-4.925100878E-2
3.820120964E0,-8.071820736E-1,1.454622895E-1,-7.918340713E-2
3.830120964E0,-7.503715754E-1,1.564578563E-1,-9.689849615E-2
3.840120964E0,-6.269767880E-1,1.118647009E-1,-9.506590664E-2
3.850121364E0,-4.962516427E-1,5.077817291E-2,-8.345946670E-2
3.860121364E0,-3.563635051E-1,-1.763873361E-2,-7.307475805E-2
3.870121364E0,-2.433534414E-1,-5.062545836E-2,-6.391177326E-2
3.880121364E0,-1.865429729E-1,-5.612324551E-2,-6.391177326E-2
3.890121364E0,-1.957059503E-1,-2.435825206E-2,-7.002042979E-2
3.900121364E0,-2.525164187E-1,2.023491077E-2,-8.162686974E-2
3.910121364E0,-3.435353339E-1,6.971499324E-2,-9.078984708E-2
3.920121364E0,-4.229478240E-1,1.045343131E-1,-8.651378751E-2
3.930121397E0,-4.388303161E-1,1.014799923E-1,-7.185302675E-2
3.940121397E0,-3.942371607E-1,7.215845585E-2,-6.330090761E-2
3.950121430E0,-3.435353339E-1,5.138903856E-2,-5.719225854E-2
3.960121430E0,-3.062725663E-1,4.894557595E-2,-5.719225854E-2
3.970121396E0,-2.836705446E-1,7.582364976E-2,-4.864014685E-2
3.980121362E0,-2.647337317E-1,1.149190217E-1,-3.031418845E-2
3.990121362E0,-2.506838143E-1,1.857793927E-1,-2.115120925E-2
4.000121362E0,-2.451860309E-1,2.932916880E-1,-1.687515154E-2
4.010121362E0,-2.067015320E-1,4.020256996E-1,-2.848159149E-2
4.020121362E0,-1.303433776E-1,4.625013471E-1,-3.459024429E-2
4.030121362E0,-2.893974073E-2,4.771621227E-1,-3.459024429E-2
4.040121362E0,7.551821321E-2,4.301255047E-1,-3.397937864E-2
4.050121362E0,1.689805984E-1,3.391065598E-1,-2.909245715E-2
4.060121362E0,2.160172164E-1,2.651918828E-1,-9.926559869E-4
4.070121362E0,2.025781870E-1,2.230421752E-1,5.337435007E-2
4.080121362E0,1.579850167E-1,1.711186320E-1,1.401172131E-1
4.090121328E0,9.873109311E-2,1.216385439E-1,2.323578745E-1
4.100121328E0,1.015563495E-2,8.132143319E-2,3.001639247E-1
4.110121328E0,-9.491318464E-2,5.444336683E-2,3.355940878E-1
4.120121328E0,-1.694387496E-1,3.245221451E-2,3.447570801E-1
4.130121328E0,-2.024254650E-1,-2.367102774E-3,3.215442002E-1
4.140121328E0,-1.993711442E-1,-4.329507425E-2,2.769510448E-1
4.150121328E0,-1.908190250E-1,-8.055785298E-2,2.384665161E-1
4.160121328E0,-1.682170182E-1,-1.031598672E-1,2.067015320E-1
4.170121328E0,-1.291216463E-1,-1.275944710E-1,1.920407563E-1
4.180121361E0,-9.980010986E-2,-1.483639032E-1,1.773799956E-1
4.190121361E0,-7.964155823E-2,-1.569160074E-1,1.712713391E-1
4.200121361E0,-7.170030475E-2,-1.776854247E-1,1.663844138E-1
4.210121361E0,-7.597636431E-2,-2.106721550E-1,1.572214365E-1
4.220121361E0,-7.536549866E-2,-2.564870417E-1,1.535562575E-1
4.230121327E0,-7.964155823E-2,-3.041345477E-1,1.401172131E-1
4.240121327E0,-1.059087589E-1,-3.206278980E-1,1.059087589E-1
4.250121293E0,-1.376737505E-1,-2.894737720E-1,5.215261877E-2
4.260121293E0,-1.578323096E-1,-2.546544373E-1,-2.115120925E-2
4.270121293E0,-1.755474061E-1,-2.198351324E-1,-6.513350457E-2
4.280121293E0,-2.140319049E-1,-1.905135959E-1,-8.040513843E-2
4.290121293E0,-2.616794109E-1,-1.611920595E-1,-8.834638447E-2
4.300121293E0,-3.129920661E-1,-1.404226422E-1,-7.002042979E-2
4.310121326E0,-3.569743633E-1,-1.337031275E-1,-2.970332280E-2
4.320121326E0,-3.899610937E-1,-1.129337102E-1,-7.101308554E-3
4.330121326E0,-3.581961095E-1,-8.055785298E-2,-1.443169173E-2
4.340121326E0,-2.500729561E-1,-7.872525603E-2,-4.558581859E-2
4.350121326E0,-8.941540122E-2,-8.055785298E-2,-9.934195876E-2
4.360121326E0,7.673994452E-2,-5.429064855E-2,-1.647045463E-1
4.370121326E0,2.056325078E-1,-1.091921609E-2,-1.946369410E-1
4.380121326E0,2.697733641E-1,2.756529488E-2,-1.683697402E-1
4.390121326E0,2.593886554E-1,5.016730726E-2,-1.152244583E-1
4.400121326E0,2.331214547E-1,7.582364976E-2,-4.680754989E-2
4.410121326E0,2.300671190E-1,6.299547851E-2,-1.198823005E-2
4.420121326E0,2.636647224E-1,4.833471403E-2,3.894265974E-3
4.430121359E0,3.467423916E-1,1.779145002E-2,-7.712173741E-3
4.440121359E0,4.750240743E-1,-1.275181212E-2,-3.153591976E-2
4.450121359E0,6.149122119E-1,-2.924517356E-2,-5.535966158E-2
4.460121359E0,7.419722080E-1,-8.475755341E-3,-8.101600409E-2
4.470121359E0,8.293259144E-1,3.733913973E-2,-9.017898142E-2
4.480121325E0,8.513170481E-1,7.582364976E-2,-9.017898142E-2
4.490121325E0,8.195520639E-1,1.185842156E-1,-7.735081017E-2
4.500121325E0,7.407504916E-1,1.527926624E-1,-5.597052723E-2
4.510121358E0,6.301838756E-1,1.625665128E-1,-2.848159149E-2
4.520121358E0,5.025130510E-1,1.326341182E-1,8.399396902E-4
4.530121358E0,3.675118089E-1,9.048441797E-2,3.565925732E-2
4.540121358E0,2.618321180E-1,4.528038576E-2,6.131559983E-2
4.550121358E0,2.092977017E-1,-2.252565511E-2,8.452847600E-2
4.560121358E0,1.928043365E-1,-8.361218125E-2,9.430231899E-2
4.570121358E0,2.013564557E-1,-1.184315011E-1,9.308059514E-2
4.580121358E0,2.398409694E-1,-1.330922693E-1,9.369145334E-2
4.590121358E0,3.027600944E-1,-1.581377387E-1,9.613491595E-2
4.600121358E0,3.711769879E-1,-1.740202308E-1,9.796751291E-2
4.610121324E0,4.279874563E-1,-1.807397604E-1,9.980010986E-2
4.620121324E0,4.695262909E-1,-1.850158125E-1,9.552405030E-2
4.630121324E0,4.854087830E-1,-1.892918646E-1,8.391761035E-2
4.640121324E0,4.805218875E-1,-1.844049394E-1,6.681338698E-2
4.650121324E0,4.738023579E-1,-1.740202308E-1,5.093089119E-2
4.660121324E0,4.793001413E-1,-1.685224473E-1,4.054617882E-2
4.670121357E0,5.049564838E-1,-1.673007160E-1,3.688098863E-2
4.680121390E0,5.446627140E-1,-1.801288873E-1,3.871358559E-2
4.690121390E0,5.910884738E-1,-1.984548420E-1,3.199406713E-2
4.700121390E0,6.442337632E-1,-2.283872366E-1,2.222022414E-2
4.710121390E0,6.918812394E-1,-2.570978999E-1,1.244637929E-2
4.720121390E0,7.431939244E-1,-2.760347426E-1,2.061670180E-3
4.730121356E0,7.816784382E-1,-2.919172347E-1,-5.268712528E-3
4.740121356E0,7.993935347E-1,-2.858085632E-1,-1.198823005E-2
4.750121356E0,8.012261391E-1,-2.748129964E-1,-1.015563495E-2
4.760121356E0,7.908414006E-1,-2.717586756E-1,5.726861767E-3
4.770121356E0,7.676285505E-1,-2.882520258E-1,2.710714564E-2
4.780121356E0,7.291440368E-1,-3.224605024E-1,5.215261877E-2
4.790121356E0,6.692792177E-1,-3.682753742E-1,8.147415519E-2
4.800121356E0,5.965862870E-1,-4.110359550E-1,1.095739529E-1
4.810121322E0,5.135086179E-1,-4.281401932E-1,1.260673106E-1
4.820121322E0,4.273765981E-1,-4.281401932E-1,1.321759671E-1
4.830121322E0,3.485749662E-1,-4.134794176E-1,1.340085566E-1
4.840121322E0,2.844341397E-1,-3.933208585E-1,1.303433776E-1
4.850121322E0,2.373975068E-1,-3.621667325E-1,1.187369302E-1
4.860121322E0,2.037999183E-1,-3.157409728E-1,9.308059514E-2
4.870120922E0,1.799761802E-1,-2.662608922E-1,5.887213722E-2
4.880120922E0,1.683697402E-1,-2.173916698E-1,3.627012298E-2
4.890120922E0,1.805870384E-1,-1.746311039E-1,1.183551457E-2
4.900120922E0,2.264019251E-1,-1.648572534E-1,-2.542726509E-2
4.910120922E0,2.935971022E-1,-1.422552466E-1,-7.002042979E-2
4.920120922E0,3.534618914E-1,-1.428661048E-1,-1.237765700E-1
4.930120955E0,4.029420018E-1,-1.385900527E-1,-1.665371358E-1
4.940120955E0,4.457025528E-1,-1.251510233E-1,-1.860848218E-1
4.950120988E0,4.805218875E-1,-1.239292845E-1,-1.763109863E-1
4.960120988E0,5.037347674E-1,-1.086576581E-1,-1.482111812E-1
4.970120954E0,5.293911099E-1,-9.582948685E-2,-1.262200326E-1
4.980120920E0,5.672647357E-1,-8.727737516E-2,-1.182787865E-1
4.990120920E0,6.100252867E-1,-8.177958429E-2,-1.207222417E-1
5.000120920E0,6.222426295E-1,-9.338602424E-2,-1.237765700E-1
5.010120920E0,5.892558694E-1,-8.239044994E-2,-1.158353239E-1
5.020120920E0,5.202280879E-1,-4.879286140E-2,-1.085049361E-1
5.030120920E0,4.273765981E-1,-1.756237587E-3,-1.072832122E-1
5.040120920E0,3.296381533E-1,4.100432992E-2,-1.066723466E-1
5.050120920E0,2.215150148E-1,7.276932150E-2,-1.048397496E-1
5.060120920E0,9.262244403E-2,1.094212383E-1,-9.873109311E-2
5.070120920E0,-5.887213722E-2,1.546252668E-1,-7.918340713E-2
5.080120920E0,-2.293035388E-1,1.705077589E-1,-4.192062840E-2
5.090120920E0,-3.936263025E-1,1.760055423E-1,-1.603521290E-3
5.100120920E0,-5.341253281E-1,1.686751693E-1,2.283108793E-2
5.110120920E0,-6.330854893E-1,1.570687294E-1,3.504839167E-2
5.120120920E0,-6.776786447E-1,1.674534380E-1,4.237877578E-2
5.130120920E0,-6.697373986E-1,1.796707362E-1,3.382666409E-2
5.140120920E0,-6.263659596E-1,1.839468032E-1,1.733330078E-2
5.150120920E0,-5.591707826E-1,1.808924675E-1,-9.926559869E-4
5.160120920E0,-4.754822254E-1,1.479057521E-1,-2.298380435E-2
5.170121320E0,-3.899610937E-1,9.720393270E-2,-4.253149405E-2
5.180121353E0,-3.209333420E-1,4.894557595E-2,-6.330090761E-2
5.190121353E0,-2.732858360E-1,6.795875728E-3,-8.345946670E-2
5.200121353E0,-2.476294935E-1,-2.435825206E-2,-9.934195876E-2
5.210121353E0,-2.433534414E-1,-4.451680556E-2,-1.182787865E-1
5.220121353E0,-2.561815977E-1,-4.390593991E-2,-1.335504204E-1
5.230121319E0,-2.800053656E-1,-2.374738641E-2,-1.482111812E-1
5.240121319E0,-3.172681332E-1,1.718058437E-2,-1.616502106E-1
5.250121285E0,-3.643047512E-1,8.926268667E-2,-1.769218445E-1
5.260121285E0,-4.235586822E-1,1.711186320E-1,-1.842522323E-1
5.270121285E0,-4.950299263E-1,2.456441820E-1,-1.787544489E-1
5.280121285E0,-5.658903122E-1,3.134502172E-1,-1.702023298E-1
5.290121285E0,-6.300311685E-1,3.690389693E-1,-1.512655020E-1
5.300121285E0,-6.960045695E-1,3.891975284E-1,-1.243874356E-1
5.310121318E0,-7.522041798E-1,3.940844536E-1,-8.468119800E-2
5.320121318E0,-7.961865067E-1,3.946953118E-1,-3.886630014E-2
5.330121318E0,-8.273406029E-1,4.020256996E-1,5.726861767E-3
5.340121318E0,-8.499426246E-1,4.209625125E-1,4.726569727E-2
5.350121318E0,-8.609381914E-1,4.362341464E-1,8.208502084E-2
5.360121318E0,-8.523861170E-1,4.472297132E-1,1.040761694E-1
5.370121318E0,-8.383361697E-1,4.496731758E-1,1.187369302E-1
5.380121318E0,-8.120689988E-1,4.502840340E-1,1.340085566E-1
5.390121318E0,-7.693084478E-1,4.209625125E-1,1.480584592E-1
5.400121318E0,-7.222718000E-1,3.507130146E-1,1.724930704E-1
5.410121318E0,-6.581309438E-1,2.706896663E-1,1.993711442E-1
5.420121318E0,-5.958226919E-1,1.967749745E-1,2.170862406E-1
5.430121351E0,-5.390121937E-1,1.656208336E-1,2.060906589E-1
5.440121351E0,-5.005277395E-1,1.717294902E-1,1.731039435E-1
5.450121351E0,-4.938081801E-1,1.924989074E-1,1.309542358E-1
5.460121351E0,-5.035820603E-1,2.395355403E-1,9.185886383E-2
5.470121351E0,-5.255731940E-1,2.780200541E-1,4.909829423E-2
5.480121317E0,-5.506186485E-1,2.847395539E-1,1.061378326E-2
5.490121317E0,-5.836054087E-1,2.670244575E-1,-1.603521290E-3
5.500121317E0,-6.495788097E-1,2.016618848E-1,2.832887508E-2
5.510121350E0,-6.996697783E-1,1.821141988E-1,7.414376736E-2
5.520121350E0,-7.283804417E-1,1.894445866E-1,1.211803928E-1
5.530121350E0,-7.118870616E-1,1.851685345E-1,1.352302879E-1
5.540121350E0,-6.550766230E-1,1.821141988E-1,1.034653038E-1
5.550121350E0,-5.744423866E-1,1.833359301E-1,5.093089119E-2
5.560121350E0,-5.103015304E-1,1.784490049E-1,-9.926559869E-4
5.570121350E0,-4.889212847E-1,1.790598780E-1,-4.864014685E-2
5.580121350E0,-5.066363811E-1,1.790598780E-1,-7.857254148E-2
5.590121350E0,-5.316818357E-1,1.772272736E-1,-9.078984708E-2
5.600121350E0,-5.432882905E-1,1.430188268E-1,-7.979427278E-2
5.610121316E0,-5.353470445E-1,7.887797803E-2,-5.108360574E-2
5.620121316E0,-4.883103967E-1,5.574145354E-3,-1.626428775E-2
5.630121316E0,-4.143957198E-1,-7.689265907E-2,1.427897532E-2
5.640121316E0,-3.068834245E-1,-1.434769779E-1,4.482223839E-2
5.650121316E0,-1.822669208E-1,-2.008983046E-1,7.597636431E-2
5.660121316E0,-7.841982692E-2,-2.369393557E-1,9.246972948E-2
5.670121349E0,-1.977676153E-2,-2.570978999E-1,9.857837856E-2
5.680121382E0,-2.290744742E-4,-2.528218627E-1,1.083522215E-1
5.690121382E0,-1.733330078E-2,-2.570978999E-1,9.796751291E-2
5.700121382E0,-4.115704447E-2,-2.839759886E-1,7.475463301E-2
5.710121382E0,-4.848742858E-2,-3.212387562E-1,5.154175684E-2
5.720121382E0,-4.360050708E-2,-3.426190317E-1,3.688098863E-2
5.730121348E0,-4.909829423E-2,-3.523928821E-1,3.077233583E-2
5.740121348E0,-5.520694703E-2,-3.261256814E-1,2.710714564E-2
5.750121348E0,-6.375905871E-2,-2.772564590E-1,2.222022414E-2
5.760121348E0,-7.597636431E-2,-2.302198410E-1,2.283108793E-2
5.770121348E0,-8.819366992E-2,-1.837940812E-1,2.344195358E-2
5.780121348E0,-8.513934165E-2,-1.795180291E-1,2.710714564E-2
5.790121348E0,-7.597636431E-2,-1.789071560E-1,4.115704447E-2
5.800121348E0,-7.903069258E-2,-1.654681265E-1,6.559165567E-2
5.810121314E0,-1.034653038E-1,-1.294270754E-1,1.028544381E-1
5.820121314E0,-1.169043332E-1,-8.422304690E-2,1.358411610E-1
5.830121314E0,-1.162934676E-1,-5.367978290E-2,1.627192348E-1
5.840121314E0,-1.138500124E-1,-2.130392566E-2,1.639409661E-1
5.850121314E0,-1.169043332E-1,6.185010541E-3,1.602757722E-1
5.860121314E0,-1.162934676E-1,-1.580613852E-2,1.633300930E-1
5.870121314E0,-1.016327068E-1,-1.111011133E-1,1.572214365E-1
5.880121314E0,-1.095739529E-1,-2.253329158E-1,1.602757722E-1
5.890121314E0,-1.633300930E-1,-3.139083683E-1,1.761582643E-1
5.900121314E0,-2.451860309E-1,-3.517820239E-1,1.798234582E-1
5.910121314E0,-3.313180506E-1,-3.597232699E-1,1.773799956E-1
5.920121314E0,-3.942371607E-1,-3.401755691E-1,1.865429729E-1
5.930121347E0,-4.266130030E-1,-3.273474276E-1,1.798234582E-1
5.940121347E0,-4.143957198E-1,-3.065779805E-1,1.456149966E-1
5.950121380E0,-3.655264974E-1,-3.029128015E-1,1.169043332E-1
5.960121380E0,-2.861140072E-1,-3.358995318E-1,9.491318464E-2
5.970121346E0,-2.079232633E-1,-3.719405830E-1,7.780896127E-2
5.980121312E0,-1.608866304E-1,-3.585015535E-1,6.620252132E-2
5.990121312E0,-1.657735556E-1,-3.145192564E-1,4.848742858E-2
6.000121312E0,-2.012037337E-1,-2.357176244E-1,3.565925732E-2
6.010121312E0,-2.677880526E-1,-1.666898578E-1,1.855503209E-2
6.020121312E0,-3.600287139E-1,-1.385900527E-1,-4.046982154E-3
6.030121312E0,-4.657084048E-1,-1.703550518E-1,-2.603813075E-2
6.040121312E0,-5.438991189E-1,-2.461023331E-1,-5.719225854E-2
6.050121312E0,-5.579490662E-1,-3.340669274E-1,-9.384417534E-2
6.060121312E0,-4.314999282E-1,-4.171445966E-1,-1.610393524E-1
6.070121312E0,-2.983313203E-1,-4.226423800E-1,-2.294562608E-1
6.080121312E0,-1.627192348E-1,-3.786600828E-1,-2.758820057E-1
6.090121312E0,-3.810271993E-2,-3.023019433E-1,-2.990948856E-1
6.100121312E0,6.696610153E-2,-2.283872366E-1,-3.003166318E-1
6.110121312E0,1.659262776E-1,-1.776854247E-1,-2.807689309E-1
6.120121312E0,2.826015353E-1,-1.343140006E-1,-2.490039468E-1
6.130121312E0,4.035528600E-1,-1.135445759E-1,-2.227367461E-1
6.140121312E0,5.073999166E-1,-8.605564386E-2,-1.891391575E-1
6.150121312E0,5.800929070E-1,-5.367978290E-2,-1.433242559E-1
6.160121312E0,6.118578911E-1,-3.413209692E-2,-8.712465316E-2
6.170121312E0,6.161339283E-1,3.741549561E-3,-1.931861416E-2
6.180121345E0,6.069709659E-1,3.733913973E-2,5.215261877E-2
6.190121345E0,5.923101902E-1,4.711298272E-2,1.138500124E-1
6.200121345E0,5.892558694E-1,5.810855702E-2,1.657735556E-1
6.210121345E0,5.611560941E-1,6.238461286E-2,2.085341215E-1
6.220121345E0,5.306128263E-1,6.482807547E-2,2.372447848E-1
6.230121311E0,5.067890882E-1,4.711298272E-2,2.494620979E-1
6.240121311E0,4.951826334E-1,2.512183413E-2,2.543490231E-1
6.250121277E0,4.970152378E-1,1.908953884E-3,2.506838143E-1
6.260121277E0,5.214498639E-1,-7.254024968E-3,2.293035388E-1
6.270121277E0,5.629886985E-1,-4.810563754E-3,1.755474061E-1
6.280121277E0,6.149122119E-1,-5.421428941E-3,1.065196246E-1
6.290121277E0,6.698901057E-1,-1.153008174E-2,3.932445124E-2
6.300121277E0,7.267005444E-1,-1.580613852E-2,-2.542726509E-2
6.310121310E0,7.609090209E-1,-3.107776865E-2,-7.429648191E-2
6.320121310E0,7.829001546E-1,-4.879286140E-2,-8.895725012E-2
6.330121310E0,7.975609303E-1,-6.284276396E-2,-8.590292186E-2
6.340121310E0,8.085564971E-1,-7.994698733E-2,-8.651378751E-2
6.350120910E0,8.177194595E-1,-8.972083032E-2,-8.223773539E-2
6.360120910E0,8.274933100E-1,-9.033169597E-2,-8.712465316E-2
6.370120910E0,8.366563320E-1,-9.338602424E-2,-9.384417534E-2
6.380120910E0,8.262715936E-1,-1.043815985E-1,-9.873109311E-2
6.390120910E0,7.987826467E-1,-1.062141955E-1,-9.934195876E-2
6.400120910E0,7.719045877E-1,-1.049924642E-1,-9.445504099E-2
6.410120910E0,7.303657532E-1,-1.080467924E-1,-8.468119800E-2
6.420120910E0,6.827182770E-1,-1.337031275E-1,-7.551821321E-2
6.430120943E0,6.430120468E-1,-1.611920595E-1,-5.902485549E-2
6.440120943E0,6.081926823E-1,-2.045634985E-1,-3.275764734E-2
6.450120943E0,5.782603025E-1,-2.399936765E-1,-5.268712528E-3
6.460120943E0,5.660430193E-1,-2.522109747E-1,2.099849284E-2
6.470120943E0,5.745950937E-1,-2.729803920E-1,3.321579844E-2
6.480120909E0,6.100252867E-1,-2.827542424E-1,1.427897532E-2
6.490120909E0,6.527858973E-1,-2.784782052E-1,-2.787072770E-2
6.500120909E0,6.692792177E-1,-2.680934966E-1,-7.857254148E-2
6.510120942E0,6.533967257E-1,-2.497675270E-1,-1.323286891E-1
6.520120942E0,6.155230999E-1,-2.357176244E-1,-1.805870384E-1
6.530120942E0,5.507713556E-1,-2.357176244E-1,-2.147954851E-1
6.540120942E0,4.603633285E-1,-2.461023331E-1,-2.270127982E-1
6.550120942E0,3.681226671E-1,-2.442697436E-1,-2.257910669E-1
6.560120942E0,3.119230568E-1,-2.235003263E-1,-2.209041417E-1
6.570120942E0,3.064252734E-1,-2.045634985E-1,-2.166280895E-1
6.580120942E0,3.296381533E-1,-1.837940812E-1,-2.306779921E-1
6.590120942E0,3.632357419E-1,-1.581377387E-1,-2.453387529E-1
6.600120942E0,3.950007260E-1,-1.263727546E-1,-2.477822155E-1
6.610120908E0,4.292092025E-1,-7.689265907E-2,-2.520582676E-1
6.620120908E0,4.512003362E-1,-5.001459271E-2,-2.526691258E-1
6.630120908E0,4.811327457E-1,-4.085161164E-2,-2.410627007E-1
6.640120908E0,5.086216927E-1,-3.229949996E-2,-2.312888503E-1
6.650121308E0,5.122868419E-1,-3.657555580E-2,-2.215150148E-1
6.660121308E0,5.025130510E-1,-2.374738641E-2,-2.074651122E-1
6.670121341E0,4.970152378E-1,-9.086620063E-3,-1.983021349E-1
6.680121374E0,5.165629387E-1,8.017606102E-3,-2.099085748E-1
6.690121374E0,5.434409976E-1,1.779145002E-2,-2.435061634E-1
6.700121374E0,5.403866768E-1,4.963280167E-3,-2.752711475E-1
6.710121374E0,4.976260960E-1,-2.008219436E-2,-2.990948856E-1
6.720121374E0,4.267657399E-1,-1.458440814E-2,-3.143665195E-1
6.730121340E0,3.552944958E-1,3.917173296E-2,-3.076470196E-1
6.740121340E0,2.862667143E-1,1.106429696E-1,-2.874884605E-1
6.750121340E0,1.879174262E-1,1.582904607E-1,-2.526691258E-1
6.760121340E0,5.597052723E-2,2.322051525E-1,-2.037999183E-1
6.770121340E0,-9.796751291E-2,3.067307174E-1,-1.463785917E-1
6.780121340E0,-2.665663362E-1,3.433826268E-1,-8.529205620E-2
6.790121340E0,-4.143957198E-1,3.213914633E-1,-2.603813075E-2
6.800121340E0,-5.115233064E-1,2.676353455E-1,2.771801129E-2
6.810121306E0,-5.726097822E-1,1.924989074E-1,6.803511828E-2
6.820121306E0,-6.098725796E-1,1.265254617E-1,9.308059514E-2
6.830121306E0,-6.227007508E-1,9.048441797E-2,1.077413559E-1
6.840121306E0,-5.927683711E-1,7.154759020E-2,1.077413559E-1
6.850121306E0,-5.292384028E-1,4.650211707E-2,8.636107296E-2
6.860121306E0,-4.461607039E-1,2.939788997E-2,5.765040591E-2
6.870121306E0,-3.539200425E-1,6.185010541E-3,3.016147204E-2
6.880121306E0,-2.525164187E-1,-2.863430791E-2,-6.490443368E-3
6.890121306E0,-1.596648991E-1,-6.101016700E-2,-4.680754989E-2
6.900121306E0,-9.430231899E-2,-8.055785298E-2,-8.345946670E-2
6.910121306E0,-6.192646548E-2,-8.177958429E-2,-1.207222417E-1
6.920121306E0,-6.498079002E-2,-6.223189831E-2,-1.457677186E-1
6.930121339E0,-1.046870351E-1,-3.535382450E-2,-1.543198377E-1
6.940121339E0,-1.737148017E-1,9.239336476E-3,-1.530981064E-1
6.950121372E0,-2.555707395E-1,7.582364976E-2,-1.476003081E-1
6.960121372E0,-3.386484087E-1,1.399645060E-1,-1.213331074E-1
6.970121338E0,-4.064544737E-1,1.882228553E-1,-8.834638447E-2
6.980121304E0,-4.504367709E-1,2.205987126E-1,-5.169447139E-2
6.990121304E0,-4.883103967E-1,2.419789881E-1,-1.382082608E-2
7.000121304E0,-5.182427764E-1,2.645809948E-1,2.283108793E-2
7.010121304E0,-5.420665741E-1,3.000111878E-1,5.276348442E-2
7.020121304E0,-5.573381782E-1,3.342196345E-1,7.658722997E-2
7.030121304E0,-5.726097822E-1,3.580434024E-1,9.430231899E-2
7.040121304E0,-5.994879007E-1,3.812562823E-1,1.187369302E-1
7.050121304E0,-6.349180937E-1,3.916409910E-1,1.602757722E-1
7.060121304E0,-6.764569283E-1,3.714824319E-1,2.146427780E-1
7.070121304E0,-7.082219124E-1,3.433826268E-1,2.592359483E-1
7.080121304E0,-7.241044044E-1,3.189480305E-1,2.842814028E-1
7.090121304E0,-7.332673669E-1,2.816852331E-1,2.891683280E-1
7.100121304E0,-7.308239341E-1,2.609158158E-1,2.702315152E-1
7.110121304E0,-7.173848748E-1,2.645809948E-1,2.341904640E-1
7.120121304E0,-6.923394203E-1,2.731331289E-1,1.969276816E-1
7.130121304E0,-6.795112491E-1,2.517528534E-1,1.798234582E-1
7.140121304E0,-6.892850995E-1,1.955532432E-1,1.749365330E-1
7.150121304E0,-7.186065912E-1,1.454622895E-1,1.669952869E-1
7.160121304E0,-7.919104099E-1,1.161407530E-1,1.602757722E-1
7.170121304E0,-8.420013785E-1,1.039234474E-1,1.608866304E-1
7.180121337E0,-8.804858923E-1,1.112538353E-1,1.498910636E-1
7.190121337E0,-8.994227052E-1,1.222494096E-1,1.437824070E-1
7.200121337E0,-9.006444216E-1,1.308015138E-1,1.340085566E-1
7.210121337E0,-9.061422348E-1,1.411862224E-1,1.175151989E-1
7.220121337E0,-9.275225401E-1,1.619556546E-1,1.004109755E-1
7.230121303E0,-9.733374119E-1,1.918880492E-1,8.636107296E-2
7.240121303E0,-1.031369567E0,2.108248621E-1,7.047858089E-2
7.250121269E0,-1.067410707E0,2.065488100E-1,5.154175684E-2
7.260121269E0,-1.060691118E0,1.821141988E-1,3.993531689E-2
7.270121269E0,-9.757808447E-1,1.253037304E-1,3.382666409E-2
7.280121269E0,-8.352818489E-1,8.743008971E-2,2.893974073E-2
7.290121269E0,-6.776786447E-1,2.878702432E-2,-5.879578181E-3
7.300121269E0,-5.182427764E-1,-2.191479132E-2,-6.269004941E-2
7.310121302E0,-3.789655268E-1,-7.139487565E-2,-1.219439730E-1
7.320121302E0,-2.885574698E-1,-1.324813962E-1,-1.897500157E-1
7.330121302E0,-2.708423734E-1,-1.758528352E-1,-2.410627007E-1
7.340121302E0,-3.099377453E-1,-1.746311039E-1,-2.654972970E-1
7.350121302E0,-3.734677434E-1,-1.379791945E-1,-2.398409694E-1
7.360121302E0,-4.003458023E-1,-1.074359268E-1,-1.818087697E-1
7.370121302E0,-3.722459972E-1,-1.428661048E-1,-1.243874356E-1
7.380121302E0,-2.830596864E-1,-2.027309090E-1,-9.445504099E-2
7.390121302E0,-1.578323096E-1,-2.558761835E-1,-9.017898142E-2
7.400121302E0,-3.016147204E-2,-2.894737720E-1,-9.873109311E-2
7.410121302E0,7.368562371E-2,-3.016910851E-1,-1.133918613E-1
7.420121302E0,1.439351290E-1,-2.680934966E-1,-1.195005104E-1
7.430121302E0,1.720349193E-1,-2.051743716E-1,-1.109483987E-1
7.440121302E0,1.537089646E-1,-1.257618815E-1,-9.750936180E-2
7.450121302E0,8.529205620E-2,-2.313652076E-2,-6.452263892E-2
7.460121302E0,-1.916589774E-2,1.063669100E-1,-5.879578181E-3
7.470121302E0,-1.150717437E-1,2.144900560E-1,5.826127157E-2
7.480121268E0,-1.608866304E-1,2.389246672E-1,1.138500124E-1
7.490121268E0,-1.431715488E-1,1.986075640E-1,1.517236531E-1
7.500121268E0,-8.697193861E-2,1.436296850E-1,1.798234582E-1
7.510121301E0,-2.588541433E-2,7.948884368E-2,2.012037337E-1
7.520121301E0,4.802928120E-2,-1.091921609E-2,2.195297033E-1
7.530121301E0,6.635523587E-2,-7.628180087E-2,2.580142021E-1
7.540121301E0,6.024658307E-2,-1.343140006E-1,3.038291037E-1
7.550121301E0,3.520110995E-2,-1.764636934E-1,3.404810131E-1
7.560121301E0,-7.559457328E-3,-1.807397604E-1,3.618612885E-1
7.570121301E0,-6.375905871E-2,-1.318705380E-1,3.502548635E-1
7.580121301E0,-9.613491595E-2,-7.689265907E-2,3.001639247E-1
7.590121301E0,-7.841982692E-2,-3.352123126E-2,2.250274867E-1
7.600121301E0,-3.871358559E-2,-7.254024968E-3,1.333976984E-1
7.610121267E0,7.101308554E-3,1.168279815E-2,3.138320148E-2
7.620121267E0,3.764457256E-2,9.239336476E-3,-5.291620269E-2
7.630121267E0,5.902485549E-2,-2.977967961E-3,-9.934195876E-2
7.640121267E0,4.436408728E-2,-1.763873361E-2,-1.078940704E-1
7.650121267E0,1.015563495E-2,3.130684374E-3,-8.345946670E-2
7.660121267E0,-3.016147204E-2,3.245221451E-2,-4.925100878E-2
7.670121300E0,-5.887213722E-2,5.810855702E-2,-2.214386594E-3
7.680121333E0,-8.941540122E-2,8.681922406E-2,3.993531689E-2
7.690121333E0,-1.144608781E-1,1.173624843E-1,6.742425263E-2
7.700121333E0,-9.857837856E-2,1.472948790E-1,8.086328954E-2
7.710121333E0,-4.482223839E-2,1.619556546E-1,9.002626687E-2
7.720121333E0,7.673994452E-2,1.650099754E-1,8.941540122E-2
7.730121333E0,1.695914567E-1,1.589013189E-1,7.353290170E-2
7.740121333E0,2.526691258E-1,1.686751693E-1,5.948300287E-2
7.750121333E0,3.149773777E-1,1.931097806E-1,4.543310404E-2
7.760121333E0,3.461315334E-1,1.979966909E-1,3.565925732E-2
7.770121333E0,3.595705628E-1,1.876119822E-1,2.222022414E-2
7.780121333E0,3.546836376E-1,1.772272736E-1,1.305724494E-2
7.790121333E0,3.412446082E-1,1.643991023E-1,6.337726954E-3
7.800121333E0,3.192534447E-1,1.552361250E-1,-3.817907709E-4
7.810121299E0,2.929862440E-1,1.460731477E-1,6.337726954E-3
7.820121299E0,2.813797891E-1,1.228602752E-1,2.099849284E-2
7.830121299E0,2.789363563E-1,7.826711237E-2,3.993531689E-2
7.840121299E0,2.758820057E-1,3.000875562E-2,5.887213722E-2
7.850121299E0,2.636647224E-1,-1.763873361E-2,7.414376736E-2
7.860121299E0,2.520582676E-1,-5.795583874E-2,8.513934165E-2
7.870121299E0,2.361757755E-1,-7.750352472E-2,9.185886383E-2
7.880121299E0,2.111303061E-1,-8.849909902E-2,1.010218412E-1
7.890121299E0,2.056325078E-1,-9.033169597E-2,1.169043332E-1
7.900121299E0,2.318997234E-1,-9.338602424E-2,1.260673106E-1
7.910121299E0,2.758820057E-1,-1.147663072E-1,1.370628923E-1
7.920121299E0,3.210860491E-1,-1.349248588E-1,1.553888470E-1
7.930121332E0,3.730095923E-1,-1.556942761E-1,1.688278764E-1
7.940121332E0,4.389830232E-1,-1.642463952E-1,1.743256748E-1
7.950121365E0,5.043455958E-1,-1.746311039E-1,1.767691374E-1
7.960121365E0,5.409975052E-1,-1.886810064E-1,1.688278764E-1
7.970121331E0,5.471062064E-1,-1.801288873E-1,1.621083617E-1
7.980121297E0,5.379431844E-1,-1.630246639E-1,1.468367279E-1
7.990121297E0,5.208389759E-1,-1.501964927E-1,1.333976984E-1
8.000121297E0,5.257259011E-1,-1.373683214E-1,1.138500124E-1
8.010121297E0,5.599343777E-1,-1.538616866E-1,9.735664725E-2
8.020121297E0,6.081926823E-1,-1.795180291E-1,7.658722997E-2
8.030121297E0,6.662248969E-1,-2.033417672E-1,4.909829423E-2
8.040121297E0,7.285331488E-1,-2.326633036E-1,1.550070569E-2
8.050121297E0,7.877870798E-1,-2.595413625E-1,-1.748601720E-2
8.060121297E0,8.311585188E-1,-2.882520258E-1,-5.352706835E-2
8.070121297E0,8.488736153E-1,-3.065779805E-1,-9.323330969E-2
8.080121297E0,8.354345560E-1,-3.145192564E-1,-1.268308908E-1
8.090121297E0,8.012261391E-1,-3.169626892E-1,-1.469894499E-1
8.100121297E0,7.627416253E-1,-3.114649057E-1,-1.530981064E-1
8.110121297E0,7.315874696E-1,-3.132975101E-1,-1.592067480E-1
8.120121297E0,7.089854479E-1,-3.304017484E-1,-1.628719419E-1
8.130121297E0,6.845508814E-1,-3.444516361E-1,-1.549306959E-1
8.140121297E0,6.521750093E-1,-3.701079786E-1,-1.378264725E-1
8.150121297E0,6.143013835E-1,-4.098142087E-1,-1.231657043E-1
8.160121297E0,5.739842653E-1,-4.232532680E-1,-1.158353239E-1
8.170121297E0,5.513822436E-1,-4.085924923E-1,-1.152244583E-1
8.180121330E0,5.501605272E-1,-4.024838507E-1,-1.207222417E-1
8.190121330E0,5.617669225E-1,-4.067598879E-1,-1.439351290E-1
8.200121330E0,5.721516609E-1,-3.945426047E-1,-1.750892550E-1
8.210121330E0,5.745950937E-1,-3.591124117E-1,-2.050216496E-1
8.220121330E0,5.568800569E-1,-3.139083683E-1,-2.312888503E-1
8.230121296E0,5.501605272E-1,-2.864194512E-1,-2.532800138E-1
8.240121296E0,5.568800569E-1,-2.784782052E-1,-2.642755806E-1
8.250121262E0,5.886450410E-1,-2.650391459E-1,-2.538908720E-1
8.260121262E0,6.399577260E-1,-2.906954885E-1,-2.312888503E-1
8.270121262E0,7.089854479E-1,-2.913063765E-1,-2.092977017E-1
8.280121262E0,7.199810743E-1,-2.473240644E-1,-2.111303061E-1
8.290121262E0,7.132615447E-1,-1.679115891E-1,-2.050216496E-1
8.300121262E0,7.102072239E-1,-7.872525603E-2,-1.983021349E-1
8.310121295E0,7.321983576E-1,1.046106778E-2,-1.879174262E-1
8.320121295E0,7.584655881E-1,1.014799923E-1,-1.757001132E-1
8.330121295E0,7.859544754E-1,1.540143937E-1,-1.671480089E-1
8.340121295E0,8.256607652E-1,1.772272736E-1,-1.714240611E-1
8.350121228E0,8.525388241E-1,1.760055423E-1,-1.781435758E-1
8.360121228E0,8.458192945E-1,1.735620946E-1,-1.873065531E-1
8.370121228E0,8.152760267E-1,1.552361250E-1,-1.970804036E-1
8.380121228E0,7.578547001E-1,1.228602752E-1,-1.928043365E-1
8.390121228E0,6.692792177E-1,1.033125818E-1,-1.695914567E-1
8.400121228E0,5.513822436E-1,1.124755666E-1,-1.402699351E-1
8.410121228E0,4.292092025E-1,1.381319016E-1,-1.140027270E-1
8.420121228E0,3.094795942E-1,1.576795876E-1,-9.017898142E-2
8.430121261E0,1.995238662E-1,1.741729528E-1,-6.879869848E-2
8.440121261E0,8.590292186E-2,1.851685345E-1,-3.825543448E-2
8.450121261E0,-3.077233583E-2,1.882228553E-1,8.399396902E-4
8.460121261E0,-1.333976984E-1,1.741729528E-1,3.443752974E-2
8.470121261E0,-2.073123902E-1,1.509600729E-1,4.726569727E-2
8.480121227E0,-2.702315152E-1,1.301906556E-1,4.543310404E-2
8.490121227E0,-3.374266922E-1,1.167516187E-1,2.344195358E-2
8.500121227E0,-4.143957198E-1,1.210276783E-1,2.672535367E-3
8.510121260E0,-5.005277395E-1,1.106429696E-1,-6.490443368E-3
8.520121260E0,-5.872705579E-1,9.414960444E-2,-7.712173741E-3
8.530121260E0,-6.575200558E-1,8.009970188E-2,2.290744742E-4
8.540121260E0,-7.033349872E-1,7.093672454E-2,2.283108793E-2
8.550121260E0,-7.198283076E-1,6.543894112E-2,4.237877578E-2
8.560121260E0,-7.045567036E-1,5.933028832E-2,5.581781268E-2
8.570121260E0,-6.593526602E-1,3.550654277E-2,5.826127157E-2
8.580121260E0,-5.915466547E-1,5.574145354E-3,5.337435007E-2
8.590121260E0,-5.286275148E-1,-2.130392566E-2,3.749185428E-2
8.600121260E0,-4.950299263E-1,-7.254024968E-3,2.160935849E-2
8.610121226E0,-4.938081801E-1,2.634356357E-2,2.061670180E-3
8.620121226E0,-5.206862688E-1,6.727153808E-2,-2.115120925E-2
8.630121226E0,-5.646685362E-1,1.308015138E-1,-3.031418845E-2
8.640121226E0,-6.055965424E-1,1.863902509E-1,-2.909245715E-2
8.650121292E0,-6.245333552E-1,2.230421752E-1,-1.931861416E-2
8.660121292E0,-6.245333552E-1,2.395355403E-1,5.726861767E-3
8.670121325E0,-6.031530499E-1,2.309834212E-1,4.421137273E-2
8.680121358E0,-5.548947453E-1,2.138791978E-1,8.208502084E-2
8.690121358E0,-4.919756055E-1,1.967749745E-1,1.126282811E-1
8.700121358E0,-4.314999282E-1,1.949423701E-1,1.278999150E-1
8.710121358E0,-3.948480189E-1,2.248747647E-1,1.254564524E-1
8.720121358E0,-3.875176311E-1,2.987894714E-1,1.162934676E-1
8.730121324E0,-4.009566605E-1,3.733150363E-1,1.016327068E-1
8.740121324E0,-4.192826450E-1,3.995822370E-1,8.575020730E-2
8.750121324E0,-4.327216744E-1,3.763693571E-1,7.964155823E-2
8.760121324E0,-4.357759953E-1,3.275001347E-1,7.414376736E-2
8.770121324E0,-4.345542490E-1,2.829069793E-1,6.742425263E-2
8.780121324E0,-4.479933083E-1,2.425898612E-1,4.482223839E-2
8.790121324E0,-4.889212847E-1,2.157117873E-1,2.222022414E-2
8.800121324E0,-5.616142154E-1,2.120465934E-1,1.305724494E-2
8.810121290E0,-6.562983394E-1,2.334268838E-1,2.099849284E-2
8.820121290E0,-7.680866718E-1,2.627484202E-1,3.077233583E-2
8.830121323E0,-8.902597427E-1,2.853504419E-1,5.276348442E-2
8.840121323E0,-9.562332034E-1,2.621375620E-1,7.780896127E-2
8.850121323E0,-1.013043642E0,2.181552500E-1,9.980010986E-2
8.860121323E0,-1.060080290E0,1.570687294E-1,1.297325045E-1
8.870121323E0,-1.086347461E0,9.842566401E-2,1.535562575E-1
8.880121323E0,-1.085125804E0,6.666067243E-2,1.651626974E-1
8.890121323E0,-1.045419455E0,8.009970188E-2,1.590540409E-1
8.900121323E0,-9.550114274E-1,1.020908505E-1,1.230129898E-1
8.910121323E0,-8.248971701E-1,1.222494096E-1,6.620252132E-2
8.920121323E0,-6.911176443E-1,1.240820065E-1,4.505131394E-3
8.930121356E0,-5.414556861E-1,1.417970955E-1,-4.864014685E-2
8.940121356E0,-4.046218693E-1,1.222494096E-1,-9.384417534E-2
8.950121389E0,-2.867248654E-1,8.315403014E-2,-1.341612786E-1
8.960121389E0,-1.920407563E-1,2.145664208E-2,-1.598176211E-1
8.970121355E0,-1.333976984E-1,-4.146247730E-2,-1.726457924E-1
8.980121321E0,-1.364520192E-1,-7.872525603E-2,-1.830305010E-1
8.990121321E0,-2.128101736E-1,-7.261660695E-2,-1.854739636E-1
9.000121321E0,-3.392592967E-1,-4.268420860E-2,-1.702023298E-1
9.010121321E0,-4.785365760E-1,-1.091921609E-2,-1.463785917E-1
9.020121321E0,-5.946009755E-1,3.489567712E-2,-1.182787865E-1
9.030121321E0,-6.538549066E-1,9.170614183E-2,-8.895725012E-2
9.040121321E0,-6.428593397E-1,1.338558495E-1,-6.879869848E-2
9.050121321E0,-5.842162371E-1,1.717294902E-1,-5.169447139E-2
9.060121321E0,-4.901430011E-1,1.870011240E-1,-3.459024429E-2
9.070121321E0,-3.954588771E-1,1.753946841E-1,-1.809688285E-2
9.080121321E0,-3.148246706E-1,1.668425649E-1,1.450804994E-3
9.090121354E0,-2.488512248E-1,1.509600729E-1,1.855503209E-2
9.100121354E0,-1.786017269E-1,1.466840208E-1,3.504839167E-2
9.110121354E0,-1.376737505E-1,1.631773859E-1,5.826127157E-2
9.120121354E0,-1.046870351E-1,1.992184222E-1,8.575020730E-2
9.130121320E0,-7.292203605E-2,2.499202490E-1,1.101848185E-1
9.140121320E0,-3.260493279E-2,2.908482254E-1,1.278999150E-1
9.150121320E0,1.992947794E-2,3.006220460E-1,1.462258697E-1
9.160121320E0,8.223773539E-2,2.780200541E-1,1.517236531E-1
9.170121320E0,1.555415690E-1,2.474767864E-1,1.590540409E-1
9.180121353E0,2.202932835E-1,2.193769813E-1,1.669952869E-1
9.190121353E0,2.551125884E-1,1.924989074E-1,1.749365330E-1
9.200121353E0,2.465604842E-1,1.472948790E-1,1.773799956E-1
9.210121353E0,1.964695305E-1,8.743008971E-2,1.639409661E-1
9.220121353E0,1.023962870E-1,4.405865446E-2,1.492801905E-1
9.230121319E0,-3.932445124E-2,3.917173296E-2,1.407280862E-1
9.240121319E0,-1.920407563E-1,5.566509441E-2,1.450041384E-1
9.250121285E0,-3.245985210E-1,5.383250117E-2,1.572214365E-1
9.260121285E0,-4.125631154E-1,1.107193250E-2,1.663844138E-1
9.270121285E0,-4.351651371E-1,-4.940372705E-2,1.547779888E-1
9.280121285E0,-3.814089894E-1,-1.074359268E-1,1.169043332E-1
9.290121285E0,-2.916117907E-1,-1.459204406E-1,5.093089119E-2
9.300121285E0,-1.834886521E-1,-1.611920595E-1,-2.481640130E-2
9.310121318E0,-1.077413559E-1,-1.685224473E-1,-9.017898142E-2
9.320121318E0,-7.719809562E-2,-1.630246639E-1,-1.274417639E-1
9.330121318E0,-5.276348442E-2,-1.587486118E-1,-1.237765700E-1
9.340121318E0,-3.382666409E-2,-1.465312988E-1,-9.445504099E-2
9.350121318E0,-1.611157134E-2,-1.306488067E-1,-6.207918003E-2
9.360121318E0,1.198823005E-2,-9.521862119E-2,-3.459024429E-2
9.370121318E0,4.864014685E-2,-5.184718594E-2,-2.054034360E-2
9.380121318E0,1.280526221E-1,3.130684374E-3,-3.397937864E-2
9.390121284E0,2.007455975E-1,3.061962128E-2,-4.741841555E-2
9.400121284E0,2.807689309E-1,4.466952011E-2,-5.535966158E-2
9.410121284E0,3.632357419E-1,2.634356357E-2,-5.902485549E-2
9.420121284E0,4.377613068E-1,-1.214094646E-2,-5.963572115E-2
9.430121284E0,4.915174544E-1,-3.718642145E-2,-6.757696718E-2
9.440121284E0,5.019021630E-1,-4.696026444E-2,-7.979427278E-2
9.450121284E0,4.731914997E-1,-4.329507425E-2,-7.490734756E-2
9.460121284E0,4.285983145E-1,-4.757113010E-2,-4.008803144E-2
9.470121284E0,3.943898678E-1,-5.245805159E-2,-1.603521290E-3
9.480121250E0,3.962224722E-1,-6.284276396E-2,3.443752974E-2
9.490121250E0,4.334852397E-1,-7.872525603E-2,7.047858089E-2
9.500121250E0,4.860196710E-1,-8.910996467E-2,9.796751291E-2
9.510121283E0,5.263367891E-1,-8.727737516E-2,1.187369302E-1
9.520121283E0,5.281693339E-1,-6.772968173E-2,1.376737505E-1
9.530121283E0,5.141194463E-1,-3.718642145E-2,1.486693323E-1
9.540121283E0,4.933500290E-1,-2.863430791E-2,1.492801905E-1
9.550121283E0,4.811327457E-1,-4.757113010E-2,1.425606757E-1
9.560121283E0,4.713588953E-1,-9.949467331E-2,1.346194297E-1
9.570121283E0,4.738023579E-1,-1.489747614E-1,1.187369302E-1
9.580121283E0,4.713588953E-1,-1.954005212E-1,9.369145334E-2
9.590121283E0,4.579198658E-1,-2.222785950E-1,5.642867833E-2
9.600121283E0,4.408156276E-1,-2.363284975E-1,3.199406713E-2
9.610121249E0,4.273765981E-1,-2.387719452E-1,1.672243699E-2
9.620121249E0,4.243222773E-1,-2.332741618E-1,1.183551457E-2
9.630121249E0,4.365395904E-1,-2.186134011E-1,3.283400787E-3
9.640121249E0,4.676937163E-1,-2.027309090E-1,-1.320996135E-2
9.650121249E0,5.025130510E-1,-1.923462003E-1,-3.886630014E-2
9.660121249E0,5.312237144E-1,-1.905135959E-1,-6.330090761E-2
9.670121282E0,5.458844304E-1,-2.002874464E-1,-8.162686974E-2
9.680121315E0,5.556582808E-1,-2.253329158E-1,-8.345946670E-2
9.690121315E0,5.446627140E-1,-2.503784001E-1,-6.635523587E-2
9.700121315E0,5.293911099E-1,-2.778673172E-1,-4.314235970E-2
9.710121315E0,5.312237144E-1,-2.992476225E-1,-2.298380435E-2
9.720121315E0,5.403866768E-1,-3.273474276E-1,-2.054034360E-2
9.730121315E0,5.550474524E-1,-3.639993370E-1,-3.031418845E-2
9.740121315E0,5.672647357E-1,-3.963751793E-1,-4.619668424E-2
9.750120915E0,5.831472278E-1,-4.195880592E-1,-7.185302675E-2
9.760120915E0,5.935319662E-1,-4.208098054E-1,-9.140071273E-2
9.770120915E0,5.965862870E-1,-4.098142087E-1,-1.017854214E-1
9.780120915E0,5.935319662E-1,-3.743840456E-1,-9.995282441E-2
9.790120915E0,5.892558694E-1,-3.249039650E-1,-9.017898142E-2
9.800120915E0,5.947536826E-1,-2.864194512E-1,-7.124216110E-2
9.810120881E0,6.136904955E-1,-2.656500340E-1,-5.841398984E-2
9.820120881E0,6.399577260E-1,-2.552653253E-1,-5.474879593E-2
9.830120881E0,6.533967257E-1,-2.283872366E-1,-5.963572115E-2
9.840120881E0,6.338490248E-1,-2.057852298E-1,-6.635523587E-2
9.850120881E0,5.874232650E-1,-1.734093726E-1,-6.024658307E-2
9.860120881E0,5.177846551E-1,-1.459204406E-1,-4.558581859E-2
9.870120881E0,4.255439937E-1,-1.227075532E-1,-3.581197560E-2
9.880120881E0,3.497967124E-1,-1.025490016E-1,-3.459024429E-2
9.890120881E0,3.119230568E-1,-9.949467331E-2,-3.397937864E-2
9.900120881E0,3.100904822E-1,-1.007164046E-1,-2.542726509E-2
9.910120881E0,3.394120038E-1,-1.135445759E-1,-1.931861416E-2
9.920120881E0,3.956116140E-1,-1.190423667E-1,-2.542726509E-2
9.930120914E0,5.086216927E-1,-1.031598672E-1,-4.008803144E-2
9.940120914E0,5.770385861E-1,-8.239044994E-2,-6.696610153E-2
9.950120947E0,6.387359500E-1,-6.834054738E-2,-9.201157838E-2
9.960120947E0,6.784422398E-1,-5.978843570E-2,-1.091158018E-1
9.970120913E0,6.772204638E-1,-5.551237985E-2,-1.146135926E-1
9.980120879E0,6.399577260E-1,-5.429064855E-2,-1.188896447E-1
9.990120879E0,5.959753990E-1,-5.306891724E-2,-1.127809957E-1
1.000012088E1,5.562691689E-1,-4.757113010E-2,-1.005636901E-1
1.001012088E1,5.251150131E-1,-3.779728711E-2,-9.017898142E-2
1.002012088E1,4.872413874E-1,4.963280167E-3,-9.017898142E-2
1.003012088E1,4.475351572E-1,6.482807547E-2,-1.127809957E-1
1.004012091E1,4.402047694E-1,6.666067243E-2,-1.506546438E-1
1.005012131E1,4.121049643E-1,7.948884368E-2,-1.842522323E-1
1.006012131E1,3.333033621E-1,9.964739531E-2,-2.172389477E-1
1.007012131E1,2.386192381E-1,1.094212383E-1,-2.380083650E-1
1.008012131E1,1.414916664E-1,8.559749275E-2,-2.361757755E-1
1.009012131E1,3.947716579E-2,5.871942267E-2,-2.092977017E-1
1.010012131E1,-7.536549866E-2,4.711298272E-2,-1.647045463E-1
1.011012131E1,-1.853212416E-1,6.604980677E-2,-1.127809957E-1
1.012012131E1,-2.952769995E-1,8.132143319E-2,-6.330090761E-2
1.013012131E1,-3.905719519E-1,8.254316449E-2,-2.176207490E-2
1.014012131E1,-4.534910917E-1,7.399105281E-2,6.948592141E-3
1.015012131E1,-4.931973219E-1,7.521278411E-2,2.893974073E-2
1.016012131E1,-5.316818357E-1,8.620835841E-2,3.932445124E-2
1.017012131E1,-5.658903122E-1,1.027017161E-1,4.237877578E-2
1.018012134E1,-5.921574831E-1,1.173624843E-1,4.482223839E-2
1.019012135E1,-6.147595048E-1,1.222494096E-1,4.909829423E-2
1.020012135E1,-6.416375637E-1,1.265254617E-1,6.070473418E-2
1.021012135E1,-6.703482270E-1,1.381319016E-1,7.475463301E-2
1.022012134E1,-6.837872863E-1,1.564578563E-1,9.063713253E-2
1.023012131E1,-6.807329655E-1,1.643991023E-1,8.025242388E-2
1.024012131E1,-6.709591150E-1,1.747838110E-1,5.948300287E-2
1.025012128E1,-6.593526602E-1,1.870011240E-1,4.054617882E-2
1.026012128E1,-6.550766230E-1,1.851685345E-1,2.832887508E-2
1.027012128E1,-6.679047942E-1,1.894445866E-1,2.649627998E-2
1.028012128E1,-7.033349872E-1,2.077705413E-1,3.749185428E-2
1.029012128E1,-7.326564789E-1,2.334268838E-1,4.909829423E-2
1.030012128E1,-7.393760085E-1,2.438115925E-1,6.803511828E-2
1.031012131E1,-7.173848748E-1,2.499202490E-1,8.697193861E-2
1.032012131E1,-6.697373986E-1,2.566397488E-1,9.796751291E-2
1.033012131E1,-6.135377884E-1,2.529745698E-1,8.330674469E-2
1.034012128E1,-5.665011406E-1,2.523637116E-1,5.093089119E-2
1.035012128E1,-5.634468198E-1,2.700788081E-1,2.222022414E-2
1.036012128E1,-5.866597295E-1,3.000111878E-1,-4.046982154E-3
1.037012128E1,-6.190355420E-1,3.000111878E-1,-1.382082608E-2
1.038012128E1,-6.562983394E-1,2.737439871E-1,-3.436116967E-3
1.039012128E1,-7.106653452E-1,2.401463985E-1,1.916589774E-2
1.040012128E1,-7.693084478E-1,2.028836161E-1,5.826127157E-2
1.041012128E1,-8.346710205E-1,1.680642962E-1,1.150717437E-1
1.042012128E1,-8.902597427E-1,1.497383416E-1,1.596648991E-1
1.043012131E1,-9.189704061E-1,1.356884390E-1,1.718822122E-1
1.044012131E1,-9.177486897E-1,1.271363348E-1,1.535562575E-1
1.045012131E1,-8.988118768E-1,1.387427747E-1,1.175151989E-1
1.046012131E1,-8.798750043E-1,1.637882441E-1,7.780896127E-2
1.047012131E1,-8.694903255E-1,1.894445866E-1,3.932445124E-2
1.048012128E1,-8.639925122E-1,2.187661231E-1,1.450804994E-3
1.049012128E1,-8.255079985E-1,2.425898612E-1,-7.124216110E-2
1.050012128E1,-7.723627687E-1,2.505311072E-1,-9.689849615E-2
1.051012101E1,-6.947828531E-1,2.450333238E-1,-1.005636901E-1
1.052012101E1,-5.982661247E-1,2.114357352E-1,-8.468119800E-2
1.053012101E1,-4.834234715E-1,1.534035355E-1,-5.963572115E-2
1.054012101E1,-3.753003478E-1,9.781479836E-2,-3.764457256E-2
1.055012101E1,-2.977204621E-1,7.765624672E-2,-1.626428775E-2
1.056012101E1,-2.390773892E-1,6.666067243E-2,2.672535367E-3
1.057012101E1,-2.018146068E-1,4.711298272E-2,1.305724494E-2
1.058012101E1,-1.944842190E-1,5.688682571E-2,1.488984004E-2
1.059012101E1,-2.238057554E-1,1.155298874E-1,8.170322515E-3
1.060012101E1,-2.629011273E-1,1.870011240E-1,-2.214386594E-3
1.061012097E1,-3.050508201E-1,2.468659133E-1,-1.076649968E-2
1.062012097E1,-3.459787965E-1,2.792417705E-1,-1.076649968E-2
1.063012097E1,-3.722459972E-1,2.920699418E-1,8.399396902E-4
1.064012097E1,-3.746894598E-1,2.578614950E-1,2.466368489E-2
1.065012097E1,-3.508657217E-1,1.973858327E-1,6.864598393E-2
1.066012097E1,-3.056617081E-1,1.338558495E-1,1.126282811E-1
1.067012101E1,-2.494620979E-1,8.865182102E-2,1.413389444E-1
1.068012104E1,-1.963168234E-1,9.537133574E-2,1.584431678E-1
1.069012104E1,-1.474476010E-1,1.191950813E-1,1.517236531E-1
1.070012104E1,-1.083522215E-1,1.460731477E-1,1.266781837E-1
1.071012104E1,-1.156826094E-1,1.711186320E-1,9.063713253E-2
1.072012104E1,-1.395063549E-1,1.833359301E-1,6.925684959E-2
1.073012101E1,-1.529453844E-1,1.509600729E-1,5.765040591E-2
1.074012101E1,-1.688278764E-1,1.155298874E-1,5.215261877E-2
1.075012101E1,-1.792125851E-1,9.231700748E-2,5.642867833E-2
1.076012101E1,-1.877647042E-1,7.460191846E-2,6.498079002E-2
1.077012101E1,-2.042580694E-1,6.299547851E-2,8.513934165E-2
1.078012101E1,-2.348013222E-1,6.543894112E-2,1.217912585E-1
1.079012101E1,-2.842814028E-1,7.460191846E-2,1.486693323E-1
1.080012101E1,-3.197115958E-1,7.460191846E-2,1.688278764E-1
1.081012127E1,-3.453679383E-1,4.466952011E-2,2.103667259E-1
1.082012127E1,-3.551417887E-1,-8.475755341E-3,2.549598813E-1
1.083012127E1,-3.691916764E-1,-4.573853686E-2,3.044399619E-1
1.084012127E1,-3.643047512E-1,-8.544477820E-2,3.447570801E-1
1.085012127E1,-3.215442002E-1,-1.104902476E-1,3.746894598E-1
1.086012127E1,-2.360230535E-1,-1.129337102E-1,3.594178259E-1
1.087012127E1,-1.065196246E-1,-1.282053441E-1,3.172681332E-1
1.088012127E1,-2.038762718E-2,-9.827294946E-2,2.549598813E-1
1.089012127E1,3.825543448E-2,-3.352123126E-2,1.743256748E-1
1.090012127E1,8.651378751E-2,-4.199698567E-3,9.918924421E-2
1.091012127E1,1.286634952E-1,6.795875728E-3,4.237877578E-2
1.092012127E1,1.488220394E-1,-2.191479132E-2,2.222022414E-2
1.093012130E1,1.353830099E-1,-9.644035250E-2,3.627012298E-2
1.094012130E1,7.124216110E-2,-1.801288873E-1,9.063713253E-2
1.095012134E1,-4.176791012E-2,-2.235003263E-1,1.559997052E-1
1.096012134E1,-1.492801905E-1,-2.100612819E-1,1.908190250E-1
1.097012130E1,-1.883755773E-1,-1.862375438E-1,1.724930704E-1
1.098012127E1,-1.663844138E-1,-1.544725448E-1,1.205695271E-1
1.099012127E1,-1.150717437E-1,-9.644035250E-2,5.887213722E-2
1.100012127E1,-3.077233583E-2,-3.352123126E-2,-4.657847341E-3
1.101012127E1,8.284860104E-2,1.046106778E-2,-6.574437022E-2
1.102012127E1,2.086868435E-1,3.672827408E-2,-1.054506153E-1
1.103012127E1,3.192534447E-1,6.116288155E-2,-1.286634952E-1
1.104012127E1,4.408156276E-1,1.130864322E-1,-1.323286891E-1
1.105012127E1,5.025130510E-1,1.417970955E-1,-1.256091595E-1
1.106012127E1,5.519931316E-1,1.472948790E-1,-1.091158018E-1
1.107012127E1,5.874232650E-1,1.326341182E-1,-9.140071273E-2
1.108012127E1,6.014732122E-1,1.216385439E-1,-8.712465316E-2
1.109012127E1,5.794820189E-1,1.155298874E-1,-8.712465316E-2
1.110012127E1,5.336671472E-1,1.124755666E-1,-9.567677230E-2
1.111012127E1,4.695262909E-1,1.081995070E-1,-1.048397496E-1
1.112012127E1,3.901138306E-1,1.081995070E-1,-1.109483987E-1
1.113012127E1,3.180317283E-1,1.033125818E-1,-1.127809957E-1
1.114012127E1,2.630538344E-1,8.620835841E-2,-1.237765700E-1
1.115012130E1,2.251801938E-1,6.788240373E-2,-1.421025246E-1
1.116012130E1,2.190715522E-1,4.711298272E-2,-1.488220394E-1
1.117012130E1,2.380083650E-1,2.145664208E-2,-1.378264725E-1
1.118012134E1,2.587777972E-1,-9.697485715E-3,-1.097266674E-1
1.119012134E1,2.758820057E-1,-2.924517356E-2,-7.857254148E-2
1.120012134E1,2.844341397E-1,-3.474296257E-2,-5.474879593E-2
1.121012134E1,2.990948856E-1,-3.107776865E-2,-3.642284125E-2
1.122012134E1,3.308598995E-1,-5.429064855E-2,-2.848159149E-2
1.123012130E1,3.803399801E-1,-9.094256163E-2,-3.214678168E-2
1.124012130E1,4.267657399E-1,-1.239292845E-1,-4.008803144E-2
1.125012127E1,4.548655450E-1,-1.453095675E-1,-4.619668424E-2
1.126012127E1,4.585307240E-1,-1.581377387E-1,-5.047274008E-2
1.127012127E1,4.273765981E-1,-1.703550518E-1,-5.169447139E-2
1.128012127E1,3.821725547E-1,-1.752419621E-1,-5.413793400E-2
1.129012130E1,3.455206454E-1,-1.905135959E-1,-4.986187443E-2
1.130012130E1,3.308598995E-1,-2.186134011E-1,-3.153591976E-2
1.131012133E1,3.418554664E-1,-2.454914749E-1,-1.382082608E-2
1.132012133E1,3.907246888E-1,-2.680934966E-1,-2.825251780E-3
1.133012133E1,4.634176493E-1,-2.803107798E-1,2.290744742E-4
1.134012133E1,5.361106396E-1,-2.906954885E-1,-4.046982154E-3
1.135012133E1,5.947536826E-1,-2.913063765E-1,-1.382082608E-2
1.136012133E1,6.307947040E-1,-2.894737720E-1,-2.725986205E-2
1.137012133E1,6.332381964E-1,-2.833651304E-1,-4.192062840E-2
1.138012133E1,6.051383615E-1,-2.864194512E-1,-5.108360574E-2
1.139012133E1,5.513822436E-1,-2.949715555E-1,-5.291620269E-2
1.140012133E1,4.939609170E-1,-3.084105849E-1,-4.986187443E-2
1.141012133E1,4.524220824E-1,-3.371212482E-1,-3.153591976E-2
1.142012133E1,4.322635233E-1,-3.639993370E-1,-1.259909570E-2
1.143012137E1,4.237114191E-1,-3.615558743E-1,2.290744742E-4
1.144012137E1,4.206570685E-1,-3.365103900E-1,-5.879578181E-3
1.145012133E1,4.231005311E-1,-3.023019433E-1,-2.725986205E-2
1.146012133E1,4.328743815E-1,-2.748129964E-1,-5.352706835E-2
1.147012137E1,4.481460154E-1,-2.607631087E-1,-8.101600409E-2
1.148012133E1,4.628067911E-1,-2.625956833E-1,-8.895725012E-2
1.149012133E1,4.579198658E-1,-2.662608922E-1,-7.796167582E-2
1.150012133E1,4.377613068E-1,-2.570978999E-1,-5.841398984E-2
1.151012137E1,4.102723598E-1,-2.338850349E-1,-4.069889709E-2
1.152012137E1,4.017202556E-1,-2.094504237E-1,-3.031418845E-2
1.153012137E1,4.121049643E-1,-1.911244690E-1,-2.848159149E-2
1.154012137E1,4.481460154E-1,-1.740202308E-1,-3.642284125E-2
1.155012136E1,4.970152378E-1,-1.630246639E-1,-4.925100878E-2
1.156012136E1,5.373323560E-1,-1.483639032E-1,-5.719225854E-2
1.157012136E1,5.605452061E-1,-1.227075532E-1,-6.269004941E-2
1.158012136E1,5.807037950E-1,-8.849909902E-2,-7.002042979E-2
1.159012133E1,6.094144583E-1,-7.261660695E-2,-7.124216110E-2
1.160012133E1,6.533967257E-1,-7.811439037E-2,-6.207918003E-2
1.161012130E1,6.882160306E-1,-1.019381359E-1,-4.253149405E-2
1.162012130E1,7.218136191E-1,-1.257618815E-1,-1.992947794E-2
1.163012130E1,7.407504916E-1,-1.404226422E-1,8.781188168E-3
1.164012130E1,7.431939244E-1,-1.459204406E-1,2.649627998E-2
1.165012130E1,7.260897160E-1,-1.343140006E-1,3.016147204E-2
1.166012130E1,6.802747846E-1,-1.104902476E-1,2.405281924E-2
1.167012133E1,6.124687791E-1,-8.361218125E-2,9.392052889E-3
1.168012136E1,5.428301096E-1,-5.612324551E-2,-6.490443368E-3
1.169012136E1,4.615850449E-1,-3.291036561E-2,-2.176207490E-2
1.170012136E1,3.589596748E-1,-1.397354249E-2,-4.436408728E-2
1.171012136E1,2.538908720E-1,-4.810563754E-3,-7.612907887E-2
1.172012136E1,1.598176211E-1,-2.741257846E-2,-9.078984708E-2
1.173012133E1,8.284860104E-2,-6.467536092E-2,-9.384417534E-2
1.174012133E1,3.817907709E-4,-9.888381511E-2,-8.895725012E-2
1.175012133E1,-1.101848185E-1,-1.049924642E-1,-7.124216110E-2
1.176012133E1,-2.378556579E-1,-1.001055390E-1,-5.719225854E-2
1.177012130E1,-3.581961095E-1,-5.856670439E-2,-4.864014685E-2
1.178012130E1,-4.400520623E-1,-2.069306001E-2,-5.474879593E-2
1.179012130E1,-4.980842471E-1,-9.697485715E-3,-7.735081017E-2
1.180012130E1,-5.151884556E-1,-7.254024968E-3,-1.017854214E-1
1.181012126E1,-5.041928887E-1,-2.985603921E-2,-1.237765700E-1
1.182012126E1,-4.925864637E-1,-5.306891724E-2,-1.292743534E-1
1.183012126E1,-4.986951053E-1,-6.101016700E-2,-1.195005104E-1
1.184012126E1,-5.005277395E-1,-6.406449527E-2,-9.506590664E-2
1.185012126E1,-4.980842471E-1,-5.978843570E-2,-6.452263892E-2
1.186012126E1,-4.919756055E-1,-4.879286140E-2,-4.619668424E-2
1.187012129E1,-4.822017550E-1,-2.619084716E-2,-3.886630014E-2
1.188012129E1,-4.663192630E-1,3.741549561E-3,-3.642284125E-2
1.189012129E1,-4.528802335E-1,3.061962128E-2,-3.214678168E-2
1.190012129E1,-4.522693455E-1,5.688682571E-2,-2.237293869E-2
1.191012129E1,-4.675409794E-1,8.132143319E-2,2.290744742E-4
1.192012129E1,-4.980842471E-1,1.020908505E-1,3.077233583E-2
1.193012133E1,-5.267949104E-1,1.191950813E-1,6.253732741E-2
1.194012133E1,-5.457317233E-1,1.295797974E-1,1.034653038E-1
1.195012136E1,-5.518403649E-1,1.393536329E-1,1.401172131E-1
1.196012136E1,-5.567272902E-1,1.582904607E-1,1.621083617E-1
1.197012133E1,-5.646685362E-1,1.729512215E-1,1.743256748E-1
1.198012129E1,-5.677229166E-1,1.967749745E-1,1.694387496E-1
1.199012129E1,-5.671120286E-1,2.175443918E-1,1.474476010E-1
1.200012129E1,-5.671120286E-1,2.340377420E-1,1.260673106E-1
1.201012129E1,-5.640577078E-1,2.590832114E-1,1.150717437E-1
1.202012129E1,-5.536729693E-1,2.780200541E-1,1.211803928E-1
1.203012129E1,-5.261840224E-1,2.853504419E-1,1.321759671E-1
1.204012129E1,-4.944190681E-1,2.859613001E-1,1.401172131E-1
1.205012129E1,-4.828126132E-1,2.822960913E-1,1.572214365E-1
1.206012129E1,-4.889212847E-1,2.829069793E-1,1.682170182E-1
1.207012129E1,-5.249623060E-1,2.877938747E-1,1.688278764E-1
1.208012129E1,-5.793293118E-1,2.969568670E-1,1.669952869E-1
1.209012129E1,-6.416375637E-1,3.012329340E-1,1.437824070E-1
1.210012129E1,-7.112762332E-1,3.061198592E-1,1.107956842E-1
1.211012129E1,-8.029059768E-1,3.122285008E-1,7.780896127E-2
1.212012129E1,-9.275225401E-1,3.329979181E-1,5.093089119E-2
1.213012129E1,-1.075351954E0,3.702606857E-1,4.421137273E-2
1.214012129E1,-1.203022718E0,3.916409910E-1,5.398521572E-2
1.215012129E1,-1.290987372E0,3.653737605E-1,9.185886383E-2
1.216012129E1,-1.264109254E0,3.195588887E-1,1.138500124E-1
1.217012126E1,-1.184696794E0,2.896264791E-1,1.205695271E-1
1.218012129E1,-1.062523723E0,2.743548453E-1,1.181260645E-1
1.219012129E1,-9.067531228E-1,2.535854280E-1,1.181260645E-1
1.220012129E1,-7.179957628E-1,2.157117873E-1,1.144608781E-1
1.221012129E1,-5.249623060E-1,1.760055423E-1,9.063713253E-2
1.222012129E1,-3.563635051E-1,1.717294902E-1,6.314819306E-2
1.223012126E1,-2.299144119E-1,1.503492147E-1,4.543310404E-2
1.224012126E1,-1.419498175E-1,1.210276783E-1,3.382666409E-2
1.225012122E1,-7.903069258E-2,7.582364976E-2,2.160935849E-2
1.226012122E1,-3.871358559E-2,3.000875562E-2,-3.817907709E-4
1.227012122E1,-3.199406713E-2,3.130684374E-3,-2.542726509E-2
1.228012122E1,-5.398521572E-2,-6.032294128E-3,-4.130976275E-2
1.229012122E1,-8.819366992E-2,-2.680171281E-2,-3.520110995E-2
1.230012122E1,-1.248455867E-1,-6.039930135E-2,-2.298380435E-2
1.231012126E1,-1.682170182E-1,-7.506006956E-2,-1.382082608E-2
1.232012126E1,-2.341904640E-1,-6.223189831E-2,-5.879578181E-3
1.233012126E1,-3.215442002E-1,-1.947133057E-2,2.290744742E-4
1.234012126E1,-4.308890700E-1,3.978259861E-2,-3.436116967E-3
1.235012126E1,-5.408447981E-1,8.193229884E-2,-2.115120925E-2
1.236012126E1,-6.227007508E-1,1.179733500E-1,-4.192062840E-2
1.237012126E1,-6.789003611E-1,1.387427747E-1,-7.185302675E-2
1.238012126E1,-7.082219124E-1,1.436296850E-1,-9.567677230E-2
1.239012126E1,-7.051675916E-1,1.417970955E-1,-1.207222417E-1
1.240012126E1,-6.660721898E-1,1.277471930E-1,-1.311069578E-1
1.241012126E1,-6.055965424E-1,1.112538353E-1,-1.017854214E-1
1.242012126E1,-5.322927237E-1,9.842566401E-2,-4.741841555E-2
1.243012129E1,-4.284456074E-1,7.276932150E-2,1.672243699E-2
1.244012129E1,-2.855031490E-1,4.100432992E-2,7.231117040E-2
1.245012129E1,-1.786017269E-1,5.627596006E-2,1.089630872E-1
1.246012129E1,-7.719809562E-2,9.476047009E-2,1.187369302E-1
1.247012132E1,8.933904581E-3,1.143081561E-1,1.144608781E-1
1.248012129E1,6.269004941E-2,1.253037304E-1,1.052978933E-1
1.249012129E1,8.590292186E-2,1.161407530E-1,9.613491595E-2
1.250012129E1,1.036180183E-1,8.987355232E-2,8.086328954E-2
1.251012132E1,8.956811577E-2,4.222606122E-2,7.841982692E-2
1.252012132E1,4.741841555E-2,-4.199698567E-3,8.025242388E-2
1.253012132E1,-2.672535367E-3,-3.413209692E-2,9.124799818E-2
1.254012132E1,-4.726569727E-2,-6.772968173E-2,1.004109755E-1
1.255012165E1,-8.025242388E-2,-9.582948685E-2,8.758280426E-2
1.256012165E1,-8.941540122E-2,-9.521862119E-2,6.314819306E-2
1.257012165E1,-7.353290170E-2,-9.155342728E-2,3.382666409E-2
1.258012165E1,-5.154175684E-2,-9.338602424E-2,1.183551457E-2
1.259012165E1,-5.276348442E-2,-8.910996467E-2,9.392052889E-3
1.260012165E1,-8.086328954E-2,-6.223189831E-2,1.366810966E-2
1.261012162E1,-1.101848185E-1,-3.535382450E-2,2.405281924E-2
1.261989245E1,-1.364520192E-1,-2.741257846E-2,3.627012298E-2
1.262989245E1,-1.382846236E-1,-3.229949996E-2,4.543310404E-2
1.263989245E1,-1.309542358E-1,-5.795583874E-2,4.360050708E-2
1.264989245E1,-1.101848185E-1,-7.689265907E-2,2.344195358E-2
1.265989245E1,-8.391761035E-2,-7.933612168E-2,-5.879578181E-3
1.266989249E1,-4.176791012E-2,-7.872525603E-2,-3.886630014E-2
1.267989252E1,1.870774850E-2,-7.261660695E-2,-6.391177326E-2
1.268989252E1,1.048397496E-1,-8.055785298E-2,-7.429648191E-2
1.269989252E1,1.995238662E-1,-9.399688989E-2,-6.818783283E-2
1.270989252E1,3.296381533E-1,-1.135445759E-1,-3.031418845E-2
1.271989255E1,4.108832479E-1,-1.178206354E-1,-4.046982154E-3
1.272989252E1,4.768566787E-1,-1.031598672E-1,1.000291854E-2
1.273989252E1,5.183955431E-1,-6.406449527E-2,1.122464892E-2
1.274989252E1,5.483279228E-1,-3.046690486E-2,1.427897532E-2
1.275989252E1,5.501605272E-1,-1.458440814E-2,2.466368489E-2
1.276989248E1,5.257259011E-1,-3.046690486E-2,4.115704447E-2
1.277989248E1,4.909065962E-1,-6.528622657E-2,5.276348442E-2
1.278989248E1,4.542546570E-1,-1.092685238E-1,7.170030475E-2
1.279989248E1,4.218788147E-1,-1.453095675E-1,8.208502084E-2
1.280989245E1,3.950007260E-1,-1.660789847E-1,9.308059514E-2
1.281989245E1,3.827834427E-1,-1.685224473E-1,1.022435725E-1
1.282989245E1,3.809508383E-1,-1.642463952E-1,1.114065498E-1
1.283989245E1,3.876703680E-1,-1.581377387E-1,1.162934676E-1
1.284989212E1,3.968333304E-1,-1.501964927E-1,1.083522215E-1
1.285989212E1,4.096615016E-1,-1.288162023E-1,9.185886383E-2
1.286989215E1,4.200462103E-1,-1.214858219E-1,6.925684959E-2
1.287989215E1,4.322635233E-1,-1.269836128E-1,4.176791012E-2
1.288989215E1,4.279874563E-1,-1.245401502E-1,1.794416644E-2
1.289989215E1,3.925572634E-1,-1.001055390E-1,-5.268712528E-3
1.290989215E1,3.296381533E-1,-7.872525603E-2,-2.420553565E-2
1.291989215E1,2.526691258E-1,-5.917757004E-2,-4.069889709E-2
1.292989218E1,1.763109863E-1,-5.062545836E-2,-5.047274008E-2
1.293989218E1,1.133918613E-1,-6.834054738E-2,-5.902485549E-2
1.294989222E1,8.284860104E-2,-1.043815985E-1,-6.330090761E-2
1.295989222E1,7.612907887E-2,-1.416443735E-1,-6.024658307E-2
1.296989218E1,9.201157838E-2,-1.556942761E-1,-5.902485549E-2
1.297989215E1,1.176679209E-1,-1.526399553E-1,-6.146831438E-2
1.298989215E1,1.463785917E-1,-1.282053441E-1,-6.452263892E-2
1.299989215E1,1.732566506E-1,-8.116871864E-2,-7.429648191E-2
1.300989215E1,2.044107765E-1,-2.802344225E-2,-8.712465316E-2
1.301989211E1,2.435061634E-1,-7.254024968E-3,-9.750936180E-2
1.302989211E1,2.929862440E-1,-2.252565511E-2,-9.873109311E-2
1.303989211E1,3.406337202E-1,-4.940372705E-2,-9.017898142E-2
1.304989211E1,3.821725547E-1,-7.933612168E-2,-7.551821321E-2
1.305989211E1,4.121049643E-1,-1.025490016E-1,-6.085744873E-2
1.306989211E1,4.432590902E-1,-1.269836128E-1,-4.497495294E-2
1.307989211E1,4.811327457E-1,-1.526399553E-1,-3.153591976E-2
1.308989211E1,5.306128263E-1,-1.752419621E-1,-1.443169173E-2
1.309989211E1,5.892558694E-1,-1.947896481E-1,8.399396902E-4
1.310989211E1,6.472880840E-1,-2.198351324E-1,1.061378326E-2
1.311989211E1,7.040985823E-1,-2.448806018E-1,1.672243699E-2
1.312989211E1,7.548003793E-1,-2.528218627E-1,1.794416644E-2
1.313989211E1,7.792350054E-1,-2.589305043E-1,8.170322515E-3
1.314989211E1,7.804567218E-1,-2.516001165E-1,-4.046982154E-3
1.315989211E1,7.425830364E-1,-2.363284975E-1,-2.237293869E-2
1.316989208E1,6.778313518E-1,-2.082286924E-1,-5.474879593E-2
1.317989211E1,6.069709659E-1,-1.764636934E-1,-9.262244403E-2
1.318989211E1,5.428301096E-1,-1.434769779E-1,-1.256091595E-1
1.319989211E1,5.092325211E-1,-1.153771728E-1,-1.378264725E-1
1.320989211E1,5.159520507E-1,-8.727737516E-2,-1.439351290E-1
1.321989211E1,5.556582808E-1,-6.101016700E-2,-1.518763751E-1
1.322989208E1,6.106361747E-1,-4.512767121E-2,-1.543198377E-1
1.323989208E1,6.723335385E-1,-3.779728711E-2,-1.476003081E-1
1.324989204E1,7.321983576E-1,-4.024074972E-2,-1.237765700E-1
1.325989204E1,7.938957214E-1,-4.085161164E-2,-8.773551881E-2
1.326989204E1,8.171086311E-1,-4.268420860E-2,-6.696610153E-2
1.327989204E1,8.256607652E-1,-4.634939879E-2,-5.413793400E-2
1.328989204E1,8.079456687E-1,-4.451680556E-2,-5.291620269E-2
1.329989204E1,7.755697966E-1,-3.779728711E-2,-5.291620269E-2
1.330989208E1,7.346417904E-1,-4.818199575E-2,-4.192062840E-2
1.331989208E1,6.906595230E-1,-7.322747260E-2,-3.459024429E-2
1.332989208E1,6.448446512E-1,-9.827294946E-2,-3.336851299E-2
1.333989208E1,5.929210782E-1,-1.043815985E-1,-3.886630014E-2
1.334989194E1,5.318345428E-1,-9.277515858E-2,-4.375322163E-2
1.335989194E1,4.634176493E-1,-7.200574130E-2,-4.008803144E-2
1.336989194E1,3.882812262E-1,-4.940372705E-2,-3.275764734E-2
1.337989194E1,3.107013404E-1,-2.985603921E-2,-2.420553565E-2
1.338989194E1,2.361757755E-1,-1.458440814E-2,-9.544769302E-3
1.339989194E1,1.708131880E-1,-5.345070967E-4,1.183551457E-2
1.340989194E1,1.097266674E-1,-1.756237587E-3,3.260493279E-2
1.341989194E1,4.619668424E-2,-2.557998151E-2,4.604396969E-2
1.342989198E1,4.046982154E-3,-4.207334295E-2,4.848742858E-2
1.343989198E1,-2.283108793E-2,-4.818199575E-2,3.260493279E-2
1.344989198E1,-4.665483162E-2,-3.962988406E-2,-1.603521290E-3
1.345989198E1,-7.231117040E-2,-3.229949996E-2,-3.947716579E-2
1.346989201E1,-1.071304902E-1,-2.252565511E-2,-7.673994452E-2
1.347989198E1,-1.553888470E-1,-1.641700417E-2,-1.097266674E-1
1.348989198E1,-2.231948823E-1,-2.069306001E-2,-1.317178160E-1
1.349989198E1,-2.995530367E-1,-2.069306001E-2,-1.414916664E-1
1.350989201E1,-3.691916764E-1,-2.680171281E-2,-1.384373307E-1
1.351989201E1,-4.198935032E-1,-2.802344225E-2,-1.268308908E-1
1.352989201E1,-4.516584873E-1,-2.252565511E-2,-1.207222417E-1
1.353989201E1,-4.681518376E-1,-4.199698567E-3,-1.268308908E-1
1.354989161E1,-4.834234715E-1,2.695442922E-2,-1.414916664E-1
1.355989161E1,-4.993059933E-1,5.994115397E-2,-1.494329125E-1
1.356989161E1,-5.237405896E-1,8.559749275E-2,-1.524872333E-1
1.357989161E1,-5.518403649E-1,1.033125818E-1,-1.445459872E-1
1.358989161E1,-5.793293118E-1,1.069777757E-1,-1.329395473E-1
1.359989161E1,-6.049856544E-1,1.136972904E-1,-1.237765700E-1
1.360989157E1,-6.306419969E-1,1.240820065E-1,-1.115592644E-1
1.361989157E1,-6.575200558E-1,1.344667077E-1,-9.140071273E-2
1.362989157E1,-6.868416071E-1,1.362993121E-1,-6.452263892E-2
1.363989157E1,-7.210500836E-1,1.405753642E-1,-3.764457256E-2
1.364989171E1,-7.534258962E-1,1.399645060E-1,-5.268712528E-3
1.365989171E1,-7.870234847E-1,1.424079537E-1,2.710714564E-2
1.366989174E1,-8.200102448E-1,1.570687294E-1,5.276348442E-2
1.367989177E1,-8.481100202E-1,1.870011240E-1,7.292203605E-2
1.368989177E1,-8.743772507E-1,2.254856378E-1,8.025242388E-2
1.369989177E1,-8.951466680E-1,2.786309123E-1,7.353290170E-2
1.370989177E1,-8.945357800E-1,3.360522389E-1,6.742425263E-2
1.371989177E1,-8.713229299E-1,3.714824319E-1,6.253732741E-2
1.372989174E1,-8.426122665E-1,3.916409910E-1,6.314819306E-2
1.373989174E1,-8.139016032E-1,3.977496326E-1,7.658722997E-2
1.374989174E1,-7.833583355E-1,4.020256996E-1,1.004109755E-1
1.375989174E1,-7.577019930E-1,3.617085814E-1,1.272890419E-1
1.376989171E1,-7.460955381E-1,3.067307174E-1,1.584431678E-1
1.377989170E1,-7.479281425E-1,2.548071742E-1,1.828777790E-1
1.378989170E1,-7.491498590E-1,2.151009291E-1,1.920407563E-1
1.379989170E1,-7.552585006E-1,2.034944892E-1,1.816560477E-1
1.380989167E1,-7.741953135E-1,2.089922726E-1,1.541671157E-1
1.381989167E1,-7.723627687E-1,2.303725630E-1,9.308059514E-2
1.382989167E1,-7.442629337E-1,2.212095708E-1,4.482223839E-2
1.383989167E1,-7.137196660E-1,1.998292953E-1,1.061378326E-2
1.384989207E1,-6.929502487E-1,1.912771761E-1,-1.809688285E-2
1.385989207E1,-6.862307191E-1,1.998292953E-1,-3.214678168E-2
1.386989210E1,-6.807329655E-1,1.955532432E-1,-2.848159149E-2
1.387989210E1,-6.874524951E-1,1.833359301E-1,-1.992947794E-2
1.388989210E1,-7.106653452E-1,1.863902509E-1,-8.323038928E-3
1.389989210E1,-7.583128214E-1,1.924989074E-1,1.244637929E-2
1.390989210E1,-8.212319613E-1,1.851685345E-1,3.260493279E-2
1.391989210E1,-8.707120419E-1,1.686751693E-1,4.360050708E-2
1.392989214E1,-8.823184967E-1,1.479057521E-1,4.665483162E-2
1.393989214E1,-8.603273630E-1,1.222494096E-1,4.543310404E-2
1.394989217E1,-8.132907152E-1,1.173624843E-1,3.688098863E-2
1.395989217E1,-7.522041798E-1,1.301906556E-1,2.283108793E-2
1.396989214E1,-6.727917194E-1,1.191950813E-1,1.427897532E-2
1.397989210E1,-5.610033870E-1,6.238461286E-2,1.794416644E-2
1.398989210E1,-4.486041665E-1,-6.032294128E-3,2.588541433E-2
1.399989210E1,-3.392592967E-1,-5.856670439E-2,3.688098863E-2
1.400989210E1,-2.390773892E-1,-1.178206354E-1,5.093089119E-2
1.401989210E1,-1.474476010E-1,-1.538616866E-1,5.581781268E-2
1.402989210E1,-9.491318464E-2,-1.611920595E-1,6.070473418E-2
1.403989210E1,-7.414376736E-2,-1.324813962E-1,4.176791012E-2
1.404989210E1,-8.330674469E-2,-1.062141955E-1,2.099849284E-2
1.405989210E1,-1.138500124E-1,-7.628180087E-2,-4.657847341E-3
1.406989210E1,-1.627192348E-1,-4.879286140E-2,-2.420553565E-2
1.407989210E1,-2.152536362E-1,-8.475755341E-3,-3.459024429E-2
1.408989210E1,-2.488512248E-1,9.850202128E-3,-2.848159149E-2
1.409989210E1,-2.500729561E-1,-5.421428941E-3,-1.076649968E-2
1.410989210E1,-2.231948823E-1,-3.535382450E-2,1.611157134E-2
1.411989210E1,-1.798234582E-1,-6.895141304E-2,3.993531689E-2
1.412989210E1,-1.382846236E-1,-8.849909902E-2,5.276348442E-2
1.413989210E1,-9.918924421E-2,-9.216429293E-2,4.848742858E-2
1.414989210E1,-6.375905871E-2,-8.849909902E-2,2.405281924E-2
1.415989210E1,-4.115704447E-2,-7.261660695E-2,-4.657847341E-3
1.416989207E1,-3.565925732E-2,-5.367978290E-2,-2.176207490E-2
1.417989210E1,-3.138320148E-2,-4.451680556E-2,-2.420553565E-2
1.418989210E1,-2.283108793E-2,-1.886046492E-2,-1.137736533E-2
1.419989210E1,-5.726861767E-3,1.901318133E-2,7.559457328E-3
1.420989210E1,1.626428775E-2,5.077817291E-2,3.321579844E-2
1.421989210E1,4.375322163E-2,7.521278411E-2,6.009386852E-2
1.422989207E1,5.352706835E-2,1.057560444E-1,9.857837856E-2
1.423989207E1,3.336851299E-2,1.332449764E-1,1.401172131E-1
1.424989203E1,-2.672535367E-3,1.570687294E-1,1.914298981E-1
1.425989203E1,-4.237877578E-2,1.515709460E-1,2.366339266E-1
1.426989203E1,-6.192646548E-2,1.179733500E-1,2.647337317E-1
1.427989203E1,-6.253732741E-2,6.604980677E-2,2.769510448E-1
1.428989203E1,-6.620252132E-2,2.573269792E-2,2.708423734E-1
1.429989203E1,-8.452847600E-2,7.635815564E-5,2.488512248E-1
1.430989207E1,-9.552405030E-2,-2.496911772E-2,2.121993154E-1
1.431989207E1,-1.034653038E-1,-3.535382450E-2,1.425606757E-1
1.432989207E1,-9.980010986E-2,-1.153008174E-2,5.215261877E-2
1.433989207E1,-6.192646548E-2,1.351539325E-2,-4.619668424E-2
1.434989207E1,3.817907709E-4,1.168279815E-2,-1.286634952E-1
1.435989207E1,5.169447139E-2,-7.254024968E-3,-1.879174262E-1
1.436989207E1,7.857254148E-2,-2.741257846E-2,-2.270127982E-1
1.437989207E1,4.069889709E-2,-4.146247730E-2,-2.092977017E-1
1.438989207E1,-2.955060638E-2,-6.956227869E-2,-1.634828150E-1
1.439989207E1,-1.211803928E-1,-8.666650951E-2,-9.873109311E-2
1.440989207E1,-1.926516294E-1,-1.056033298E-1,-2.725986205E-2
1.441989207E1,-1.999820024E-1,-1.300379336E-1,4.604396969E-2
1.442989210E1,-1.327868253E-1,-1.428661048E-1,9.857837856E-2
1.443989210E1,-1.366810966E-2,-1.385900527E-1,1.297325045E-1
1.444989210E1,1.225548387E-1,-1.159880385E-1,1.291216463E-1
1.445989210E1,2.648864388E-1,-8.116871864E-2,1.095739529E-1
1.446989213E1,4.066071808E-1,-5.184718594E-2,8.269587904E-2
1.447989210E1,5.281693339E-1,-2.741257846E-2,6.253732741E-2
1.448989210E1,6.173557043E-1,-4.810563754E-3,5.703954399E-2
1.449989210E1,6.784422398E-1,7.635815564E-5,6.314819306E-2
1.450989213E1,7.199810743E-1,-7.864889689E-3,7.841982692E-2
1.451989213E1,7.456374168E-1,-3.596469015E-2,9.308059514E-2
1.452989213E1,7.407504916E-1,-6.039930135E-2,9.918924421E-2
1.453989213E1,6.973790526E-1,-7.322747260E-2,9.980010986E-2
1.454989190E1,6.191883087E-1,-7.689265907E-2,9.980010986E-2
1.455989190E1,5.165629387E-1,-8.239044994E-2,1.010218412E-1
1.456989190E1,4.188244939E-1,-9.582948685E-2,1.071304902E-1
1.457989190E1,3.418554664E-1,-1.367574632E-1,1.040761694E-1
1.458989190E1,3.039818108E-1,-1.844049394E-1,9.185886383E-2
1.459989190E1,3.003166318E-1,-2.204459906E-1,6.986771524E-2
1.460989186E1,3.161991239E-1,-2.369393557E-1,4.909829423E-2
1.461989186E1,3.424663246E-1,-2.216677219E-1,3.077233583E-2
1.462989186E1,3.785073757E-1,-2.021200359E-1,2.038762718E-2
1.463989186E1,4.206570685E-1,-1.770745665E-1,4.505131394E-3
1.464989186E1,4.591415823E-1,-1.556942761E-1,-1.504255645E-2
1.465989186E1,4.933500290E-1,-1.556942761E-1,-2.603813075E-2
1.466989190E1,5.141194463E-1,-1.581377387E-1,-3.336851299E-2
1.467989193E1,5.232824683E-1,-1.544725448E-1,-3.886630014E-2
1.468989193E1,5.330562592E-1,-1.526399553E-1,-4.497495294E-2
1.469989193E1,5.397757888E-1,-1.642463952E-1,-3.886630014E-2
1.470989193E1,5.452736020E-1,-1.831832081E-1,-2.725986205E-2
1.471989193E1,5.550474524E-1,-1.996765733E-1,-1.626428775E-2
1.472989190E1,5.703190565E-1,-2.216677219E-1,-1.076649968E-2
1.473989190E1,6.008623242E-1,-2.461023331E-1,-1.504255645E-2
1.474989190E1,6.430120468E-1,-2.674826086E-1,-2.481640130E-2
1.475989190E1,6.833291054E-1,-2.851977050E-1,-4.130976275E-2
1.476989186E1,7.163158655E-1,-2.937498391E-1,-6.940956414E-2
1.477989186E1,7.456374168E-1,-2.906954885E-1,-1.017854214E-1
1.478989186E1,7.621307373E-1,-2.833651304E-1,-1.359938681E-1
1.479989186E1,7.664068341E-1,-2.711478174E-1,-1.616502106E-1
1.480989183E1,7.535786629E-1,-2.687043548E-1,-1.689805984E-1
1.481989183E1,7.376961708E-1,-2.650391459E-1,-1.616502106E-1
1.482989183E1,7.175375819E-1,-2.717586756E-1,-1.384373307E-1
1.483989183E1,6.882160306E-1,-2.894737720E-1,-1.115592644E-1
1.484989206E1,6.607271433E-1,-3.132975101E-1,-8.345946670E-2
1.485989206E1,6.332381964E-1,-3.401755691E-1,-5.658139288E-2
1.486989209E1,6.088035703E-1,-3.499494195E-1,-3.703370690E-2
1.487989209E1,5.984188914E-1,-3.255148232E-1,-3.459024429E-2
1.488989209E1,6.051383615E-1,-2.955824137E-1,-5.108360574E-2
1.489989209E1,6.277403831E-1,-2.693152130E-1,-7.857254148E-2
1.490989209E1,6.417902708E-1,-2.479349375E-1,-9.628763795E-2
1.491989209E1,6.442337632E-1,-2.228894532E-1,-1.378264725E-1
1.492989213E1,6.411794424E-1,-2.070069611E-1,-1.598176211E-1
1.493989213E1,6.161339283E-1,-2.027309090E-1,-1.555415690E-1
1.494989216E1,5.697082281E-1,-2.173916698E-1,-1.488220394E-1
1.495989216E1,5.141194463E-1,-2.381610870E-1,-1.414916664E-1
1.496989213E1,4.548655450E-1,-2.564870417E-1,-1.378264725E-1
1.497989209E1,4.041637182E-1,-2.454914749E-1,-1.341612786E-1
1.498989209E1,3.699552715E-1,-1.929570585E-1,-1.347721517E-1
1.499989209E1,3.791182339E-1,-1.275944710E-1,-1.457677186E-1
1.500989209E1,4.108832479E-1,-8.300131559E-2,-1.653154045E-1
1.501989209E1,4.542546570E-1,-5.306891724E-2,-1.811978966E-1
1.502989209E1,5.073999166E-1,-4.451680556E-2,-1.921934783E-1
1.503989209E1,5.568800569E-1,-5.978843570E-2,-1.946369410E-1
1.504989209E1,5.880341530E-1,-8.666650951E-2,-1.775327176E-1
1.505989209E1,5.813146234E-1,-1.080467924E-1,-1.451568604E-1
1.506989209E1,5.342780352E-1,-1.098793894E-1,-9.934195876E-2
1.507989209E1,4.548655450E-1,-7.994698733E-2,-5.658139288E-2
1.508989209E1,3.644574881E-1,-2.741257846E-2,-2.481640130E-2
1.509989209E1,2.764928937E-1,1.595885493E-2,5.726861767E-3
1.510989209E1,2.080759704E-1,5.871942267E-2,1.855503209E-2
1.511989209E1,1.384373307E-1,8.620835841E-2,1.733330078E-2
1.512989209E1,5.780312419E-2,1.265254617E-1,1.305724494E-2
1.513989209E1,-4.726569727E-2,1.637882441E-1,1.000291854E-2
1.514989182E1,-1.706604809E-1,1.796707362E-1,1.183551457E-2
1.515989182E1,-2.977204621E-1,1.790598780E-1,1.977676153E-2
1.516989179E1,-4.186717570E-1,1.735620946E-1,3.077233583E-2
1.517989182E1,-5.261840224E-1,1.833359301E-1,4.298964143E-2
1.518989182E1,-6.165921092E-1,2.028836161E-1,6.192646548E-2
1.519989182E1,-6.709591150E-1,2.187661231E-1,7.780896127E-2
1.520989182E1,-6.966154575E-1,2.267073691E-1,1.004109755E-1
1.521989182E1,-6.996697783E-1,2.279291004E-1,1.150717437E-1
1.522989179E1,-6.978371739E-1,2.181552500E-1,1.175151989E-1
1.523989179E1,-6.984480619E-1,2.187661231E-1,1.071304902E-1
1.524989176E1,-7.149413824E-1,2.163226604E-1,8.941540122E-2
1.525989176E1,-7.473172545E-1,2.242639065E-1,7.903069258E-2
1.526989176E1,-7.992408276E-1,2.462550551E-1,7.353290170E-2
1.527989176E1,-8.438339829E-1,2.780200541E-1,7.658722997E-2
1.528989176E1,-8.688794374E-1,2.939025462E-1,8.086328954E-2
1.529989176E1,-8.701011539E-1,2.871830165E-1,9.308059514E-2
1.530989179E1,-8.566621542E-1,2.706896663E-1,1.010218412E-1
1.531989179E1,-8.389470577E-1,2.590832114E-1,9.430231899E-2
1.532989179E1,-8.267297745E-1,2.432007194E-1,7.475463301E-2
1.533989179E1,-8.297840953E-1,2.346486151E-1,5.459608138E-2
1.534989179E1,-8.609381914E-1,2.267073691E-1,4.298964143E-2
1.535989179E1,-9.024770260E-1,2.181552500E-1,3.443752974E-2
1.536989179E1,-9.385181069E-1,2.193769813E-1,4.298964143E-2
1.537989179E1,-9.574549198E-1,2.364812046E-1,6.681338698E-2
1.538989209E1,-9.385181069E-1,2.450333238E-1,9.185886383E-2
1.539989209E1,-8.786532879E-1,2.254856378E-1,1.199586615E-1
1.540989209E1,-7.986299396E-1,1.955532432E-1,1.333976984E-1
1.541989209E1,-7.118870616E-1,1.570687294E-1,1.169043332E-1
1.542989212E1,-6.245333552E-1,1.118647009E-1,8.391761035E-2
1.543989212E1,-5.359578729E-1,7.887797803E-2,3.382666409E-2
1.544989239E1,-4.742605090E-1,6.482807547E-2,-2.054034360E-2
1.545989239E1,-4.498258829E-1,8.865182102E-2,-7.735081017E-2
1.546989242E1,-4.724279046E-1,1.375210434E-1,-1.146135926E-1
1.547989239E1,-5.426774025E-1,2.144900560E-1,-1.579850167E-1
1.548989239E1,-6.110942960E-1,2.370920777E-1,-1.549306959E-1
1.549989239E1,-6.630178690E-1,2.254856378E-1,-1.256091595E-1
1.550989242E1,-6.562983394E-1,1.552361250E-1,-8.162686974E-2
1.551989242E1,-5.903248787E-1,7.887797803E-2,-3.397937864E-2
1.552989242E1,-4.681518376E-1,-3.588833380E-3,2.290744742E-4
1.553989242E1,-3.417027593E-1,-1.641700417E-2,3.138320148E-2
1.554989242E1,-2.439643145E-1,2.206750773E-2,5.032002553E-2
1.555989242E1,-2.183079720E-1,1.075886413E-1,5.581781268E-2
1.556989242E1,-2.427425832E-1,2.089922726E-1,4.115704447E-2
1.557989242E1,-2.720641196E-1,2.841286957E-1,6.337726954E-3
1.558989242E1,-2.867248654E-1,3.134502172E-1,-3.886630014E-2
1.559989242E1,-2.580142021E-1,2.859613001E-1,-7.857254148E-2
1.560989238E1,-1.676061451E-1,2.218204439E-1,-9.934195876E-2
1.561989239E1,-1.427897532E-2,1.411862224E-1,-1.023962870E-1
1.562989239E1,1.494329125E-1,6.177374721E-2,-9.201157838E-2
1.563989239E1,2.648864388E-1,2.519819187E-3,-6.757696718E-2
1.564989239E1,3.058144152E-1,-7.254024968E-3,-2.298380435E-2
1.565989239E1,2.783254683E-1,1.840231568E-2,7.559457328E-3
1.566989242E1,1.940260679E-1,7.276932150E-2,1.611157134E-2
1.567989245E1,5.169447139E-2,1.405753642E-1,1.305724494E-2
1.568989215E1,-1.114065498E-1,1.967749745E-1,6.948592141E-3
1.569989215E1,-2.512947023E-1,2.144900560E-1,1.244637929E-2
1.570989215E1,-3.136029541E-1,1.582904607E-1,2.466368489E-2
1.571989215E1,-2.848922908E-1,3.428481147E-2,5.215261877E-2
1.572989212E1,-2.244166136E-1,-4.573853686E-2,1.004109755E-1
1.573989212E1,-1.535562575E-1,-6.406449527E-2,1.517236531E-1
1.574989212E1,-9.918924421E-2,-1.397354249E-2,1.932624876E-1
1.575989212E1,-5.703954399E-2,6.727153808E-2,2.005928755E-1
1.576989208E1,-4.176791012E-2,1.185842156E-1,1.816560477E-1
1.577989208E1,-8.269587904E-2,1.338558495E-1,1.456149966E-1
1.578989208E1,-1.834886521E-1,1.246928647E-1,9.674578160E-2
1.579989208E1,-2.922226489E-1,8.926268667E-2,4.848742858E-2
1.580989205E1,-3.734677434E-1,2.451096848E-2,1.611157134E-2
1.581989205E1,-4.253912866E-1,-5.429064855E-2,1.427897532E-2
1.582989205E1,-4.272238910E-1,-1.294270754E-1,3.382666409E-2
1.583989205E1,-3.801872432E-1,-1.526399553E-1,5.520694703E-2
1.584989205E1,-2.989421785E-1,-1.184315011E-1,6.314819306E-2
1.585989205E1,-1.902081668E-1,-4.757113010E-2,4.298964143E-2
1.586989208E1,-8.391761035E-2,2.451096848E-2,6.948592141E-3
1.587989208E1,1.443169173E-2,6.177374721E-2,-4.192062840E-2
1.588989208E1,9.017898142E-2,4.894557595E-2,-9.812022746E-2
1.589989208E1,1.176679209E-1,3.130684374E-3,-1.665371358E-1
1.590989208E1,8.773551881E-2,-5.001459271E-2,-2.172389477E-1
1.591989208E1,1.931861416E-2,-1.025490016E-1,-2.471713424E-1
1.592989212E1,-6.620252132E-2,-1.520290822E-1,-2.557234764E-1
1.593989212E1,-1.144608781E-1,-1.837940812E-1,-2.618321180E-1
1.594989295E1,-9.980010986E-2,-1.886810064E-1,-2.734385431E-1
1.595989295E1,-3.932445124E-2,-1.618029326E-1,-2.893210649E-1
1.596989291E1,6.879869848E-2,-1.214858219E-1,-3.174208403E-1
1.597989288E1,2.037999183E-1,-7.506006956E-2,-3.479641080E-1
1.598989288E1,3.571271002E-1,-3.718642145E-2,-3.656792045E-1
1.599989288E1,4.811327457E-1,-4.085161164E-2,-3.528510332E-1
1.600989288E1,5.416083932E-1,-5.062545836E-2,-3.088687360E-1
1.601989288E1,5.587126017E-1,-6.772968173E-2,-2.459496260E-1
1.602989288E1,5.660430193E-1,-8.849909902E-2,-1.469894499E-1
1.603989288E1,5.660430193E-1,-9.338602424E-2,-9.445504099E-2
1.604989288E1,5.666538477E-1,-9.338602424E-2,-5.719225854E-2
1.605989288E1,5.611560941E-1,-9.033169597E-2,-2.481640130E-2
1.606989288E1,5.550474524E-1,-9.521862119E-2,1.488984004E-2
1.607989288E1,5.550474524E-1,-9.705121815E-2,4.237877578E-2
1.608989288E1,5.434409976E-1,-7.628180087E-2,7.719809562E-2
1.609989288E1,5.153411627E-1,-5.062545836E-2,1.095739529E-1
1.610989288E1,4.817436039E-1,-3.352123126E-2,1.443932652E-1
1.611989288E1,4.554764032E-1,-1.763873361E-2,1.761582643E-1
1.612989288E1,4.267657399E-1,-8.475755341E-3,2.030363381E-1
1.613989288E1,3.992767930E-1,-2.435825206E-2,2.195297033E-1
1.614989288E1,3.778965175E-1,-5.734497309E-2,2.176970989E-1
1.615989288E1,3.607922792E-1,-1.263727546E-1,2.189188302E-1
1.616989285E1,3.504075706E-1,-2.503784001E-1,2.128101736E-1
1.617989288E1,3.394120038E-1,-3.591124117E-1,2.140319049E-1
1.618989288E1,3.174208403E-1,-4.055381715E-1,2.250274867E-1
1.619989288E1,2.801580727E-1,-4.116468132E-1,2.274709493E-1
1.620989288E1,2.404518276E-1,-3.914882541E-1,2.103667259E-1
1.621989288E1,2.251801938E-1,-3.499494195E-1,1.633300930E-1
1.622989285E1,2.459496260E-1,-3.090214431E-1,1.059087589E-1
1.623989284E1,2.722168267E-1,-2.735912800E-1,3.749185428E-2
1.624989201E1,2.813797891E-1,-2.436588705E-1,-3.031418845E-2
1.625989201E1,2.911536396E-1,-2.259437889E-1,-7.490734756E-2
1.626989201E1,3.100904822E-1,-2.198351324E-1,-8.590292186E-2
1.627989201E1,3.485749662E-1,-2.118938863E-1,-7.429648191E-2
1.628989201E1,4.114941061E-1,-2.283872366E-1,-3.520110995E-2
1.629989201E1,4.927391708E-1,-2.406045496E-1,-8.933904581E-3
1.630989204E1,5.837581158E-1,-2.387719452E-1,-1.320996135E-2
1.631989204E1,6.888269186E-1,-2.534327209E-1,-6.146831438E-2
1.632989204E1,7.621307373E-1,-2.784782052E-1,-1.274417639E-1
1.633989204E1,7.621307373E-1,-2.809216678E-1,-1.842522323E-1
1.634989204E1,7.132615447E-1,-2.412154078E-1,-2.233476043E-1
1.635989204E1,6.588945389E-1,-1.941787899E-1,-2.318997234E-1
1.636989204E1,6.283512712E-1,-1.709659100E-1,-2.239584774E-1
1.637989204E1,6.106361747E-1,-1.727984995E-1,-1.940260679E-1
1.638989204E1,6.069709659E-1,-1.782962978E-1,-1.573741585E-1
1.639989204E1,6.265186667E-1,-1.892918646E-1,-1.378264725E-1
1.640989204E1,6.717227101E-1,-1.941787899E-1,-1.445459872E-1
1.641989204E1,7.242571115E-1,-2.027309090E-1,-1.647045463E-1
1.642989208E1,7.609090209E-1,-1.990657151E-1,-1.720349193E-1
1.643989208E1,7.810675502E-1,-1.886810064E-1,-1.720349193E-1
1.644989208E1,7.810675502E-1,-1.844049394E-1,-1.616502106E-1
1.645989208E1,7.578547001E-1,-1.618029326E-1,-1.384373307E-1
1.646989211E1,7.150941491E-1,-1.343140006E-1,-1.042288840E-1
1.647989208E1,6.564510465E-1,-7.200574130E-2,-5.597052723E-2
1.648989208E1,5.880341530E-1,-2.313652076E-2,-8.933904581E-3
1.649989208E1,5.642104149E-1,-1.458440814E-2,1.488984004E-2
1.650989211E1,5.849798322E-1,-3.962988406E-2,2.649627998E-2
1.651989211E1,6.216317415E-1,-7.017314434E-2,2.588541433E-2
1.652989211E1,6.485098004E-1,-7.506006956E-2,1.305724494E-2
1.653989211E1,6.686683893E-1,-8.422304690E-2,-4.046982154E-3
1.654989248E1,6.778313518E-1,-9.399688989E-2,-1.015563495E-2
1.655989248E1,6.790530682E-1,-8.177958429E-2,8.399396902E-4
1.656989248E1,6.741661429E-1,-8.666650951E-2,2.160935849E-2
1.657989248E1,6.888269186E-1,-9.705121815E-2,3.871358559E-2
1.658989248E1,7.028768063E-1,-7.750352472E-2,4.726569727E-2
1.659989248E1,6.863834858E-1,-2.680171281E-2,2.832887508E-2
1.660989244E1,6.564510465E-1,3.978259861E-2,-7.101308554E-3
1.661989244E1,6.124687791E-1,9.414960444E-2,-4.253149405E-2
1.662989244E1,5.916993618E-1,1.173624843E-1,-7.246389240E-2
1.663989244E1,5.984188914E-1,1.051451787E-1,-7.735081017E-2
1.664989244E1,6.216317415E-1,7.582364976E-2,-8.468119800E-2
1.665989244E1,6.350708008E-1,7.338018715E-2,-8.773551881E-2
1.666989247E1,6.228534579E-1,8.132143319E-2,-8.834638447E-2
1.667989251E1,5.843689442E-1,8.926268667E-2,-8.468119800E-2
1.668989251E1,5.300019383E-1,9.903652966E-2,-8.834638447E-2
1.669989251E1,4.444808364E-1,1.167516187E-1,-8.773551881E-2
1.670989251E1,3.241403699E-1,1.362993121E-1,-7.735081017E-2
1.671989251E1,1.934152097E-1,1.289689243E-1,-6.391177326E-2
1.672989247E1,7.063129544E-2,1.051451787E-1,-5.291620269E-2
1.673989247E1,-4.970915988E-2,8.804095536E-2,-5.169447139E-2
1.674989251E1,-1.590540409E-1,7.338018715E-2,-5.841398984E-2
1.675989251E1,-2.488512248E-1,7.032585889E-2,-6.879869848E-2
1.676989247E1,-3.087160289E-1,7.215845585E-2,-8.101600409E-2
1.677989247E1,-3.594178259E-1,7.338018715E-2,-1.011745557E-1
1.678989247E1,-4.052327275E-1,6.543894112E-2,-9.689849615E-2
1.679989247E1,-4.541019499E-1,5.261076987E-2,-7.612907887E-2
1.680989244E1,-5.243514776E-1,5.749769136E-2,-4.314235970E-2
1.681989244E1,-6.110942960E-1,7.643451542E-2,-1.931861416E-2
1.682989244E1,-6.666830778E-1,9.231700748E-2,-1.137736533E-2
1.683989244E1,-6.789003611E-1,9.292787313E-2,-5.268712528E-3
1.684989207E1,-6.532440186E-1,1.014799923E-1,-5.268712528E-3
1.685989207E1,-6.153703928E-1,1.246928647E-1,-6.490443368E-3
1.686989210E1,-5.793293118E-1,1.485166103E-1,-6.490443368E-3
1.687989210E1,-5.518403649E-1,1.698969007E-1,8.399396902E-4
1.688989210E1,-5.432882905E-1,1.876119822E-1,2.955060638E-2
1.689989210E1,-5.646685362E-1,1.906663179E-1,6.803511828E-2
1.690989210E1,-6.068182588E-1,1.772272736E-1,1.144608781E-1
1.691989210E1,-6.477462053E-1,1.570687294E-1,1.450041384E-1
1.692989214E1,-6.764569283E-1,1.417970955E-1,1.584431678E-1
1.693989214E1,-7.247152328E-1,1.509600729E-1,1.657735556E-1
1.694989217E1,-7.998516560E-1,1.796707362E-1,1.669952869E-1
1.695989217E1,-8.804858923E-1,2.022727579E-1,1.639409661E-1
1.696989214E1,-9.501245022E-1,2.071596831E-1,1.498910636E-1
1.697989210E1,-9.861655831E-1,1.931097806E-1,1.315651089E-1
1.698989210E1,-9.794460535E-1,1.625665128E-1,1.107956842E-1
1.699989210E1,-9.501245022E-1,1.295797974E-1,9.308059514E-2
1.700989210E1,-9.165269136E-1,1.069777757E-1,8.575020730E-2
1.701989210E1,-8.780424595E-1,9.292787313E-2,7.597636431E-2
1.702989210E1,-8.426122665E-1,9.109527618E-2,6.803511828E-2
1.703989210E1,-8.108472824E-1,1.081995070E-1,4.360050708E-2
1.704989207E1,-7.607563138E-1,1.094212383E-1,8.399396902E-4
1.705989207E1,-6.972263455E-1,1.020908505E-1,-4.925100878E-2
1.706989207E1,-6.385832429E-1,9.292787313E-2,-1.023962870E-1
1.707989207E1,-5.805510283E-1,8.193229884E-2,-1.402699351E-1
1.708989207E1,-5.475643277E-1,5.444336683E-2,-1.347721517E-1
1.709989207E1,-5.500078201E-1,1.351539325E-2,-9.689849615E-2
1.710989167E1,-5.823836327E-1,-6.643159315E-3,-5.047274008E-2
1.711989167E1,-5.964335799E-1,-1.824959926E-2,-1.320996135E-2
1.712989167E1,-5.634468198E-1,-2.496911772E-2,-2.214386594E-3
1.713989167E1,-4.644866586E-1,-1.519527286E-2,-3.397937864E-2
1.714989167E1,-4.186717570E-1,1.595885493E-2,-7.551821321E-2
1.715989167E1,-4.052327275E-1,5.077817291E-2,-1.195005104E-1
1.716989163E1,-4.333325326E-1,8.009970188E-2,-1.543198377E-1
1.717989167E1,-4.785365760E-1,1.088103727E-1,-1.665371358E-1
1.718989167E1,-5.261840224E-1,1.442405581E-1,-1.500437707E-1
1.719989167E1,-5.756641626E-1,1.747838110E-1,-1.066723466E-1
1.720989167E1,-6.074291468E-1,1.784490049E-1,-4.008803144E-2
1.721989167E1,-6.031530499E-1,1.705077589E-1,2.344195358E-2
1.722989163E1,-5.836054087E-1,1.631773859E-1,6.314819306E-2
1.723989163E1,-5.701663494E-1,1.692860276E-1,8.575020730E-2
1.724989160E1,-5.512295365E-1,1.601230502E-1,9.796751291E-2
1.725989160E1,-5.329035521E-1,1.735620946E-1,9.735664725E-2
1.726989160E1,-5.145776272E-1,1.851685345E-1,8.086328954E-2
1.727989160E1,-5.096907020E-1,1.894445866E-1,5.887213722E-2
1.728989160E1,-5.145776272E-1,1.851685345E-1,2.588541433E-2
1.729989160E1,-5.249623060E-1,1.717294902E-1,-2.825251780E-3
1.730989163E1,-5.548947453E-1,1.863902509E-1,-1.687515154E-2
1.731989163E1,-6.214790344E-1,2.346486151E-1,-1.320996135E-2
1.732989163E1,-6.789003611E-1,2.694679201E-1,8.399396902E-4
1.733989163E1,-7.027240992E-1,2.743548453E-1,2.649627998E-2
1.734989163E1,-6.520223022E-1,2.395355403E-1,5.093089119E-2
1.735989163E1,-5.518403649E-1,1.851685345E-1,6.192646548E-2
1.736989163E1,-4.260021448E-1,1.350775808E-1,6.681338698E-2
1.737989163E1,-2.903900743E-1,8.071056753E-2,5.765040591E-2
1.738989163E1,-1.639409661E-1,2.817615867E-2,5.093089119E-2
1.739989163E1,-5.948300287E-2,-9.086620063E-3,4.237877578E-2
1.740989203E1,3.336851299E-2,-3.229949996E-2,2.344195358E-2
1.741989203E1,6.330090761E-2,-2.374738641E-2,9.392052889E-3
1.742989206E1,3.886630014E-2,-4.810563754E-3,-2.825251780E-3
1.743989207E1,-1.550070569E-2,1.168279815E-2,-4.657847341E-3
1.744989206E1,-9.735664725E-2,2.390010282E-2,1.000291854E-2
1.745989207E1,-1.779908538E-1,2.328923717E-2,3.565925732E-2
1.746989210E1,-2.244166136E-1,3.741549561E-3,7.536549866E-2
1.747989206E1,-2.183079720E-1,-3.535382450E-2,1.010218412E-1
1.748989206E1,-1.608866304E-1,-8.544477820E-2,1.077413559E-1
1.749989206E1,-8.697193861E-2,-9.888381511E-2,1.010218412E-1
1.750989210E1,-2.710714564E-2,-7.994698733E-2,7.719809562E-2
1.751989210E1,1.137736533E-2,-5.673411116E-2,3.016147204E-2
1.752989210E1,3.886630014E-2,-3.413209692E-2,-2.054034360E-2
1.753989210E1,5.597052723E-2,-3.352123126E-2,-5.413793400E-2
1.754989210E1,4.741841555E-2,-5.490151420E-2,-6.452263892E-2
1.755989210E1,3.817907709E-4,-7.261660695E-2,-3.764457256E-2
1.756989210E1,-7.964155823E-2,-7.261660695E-2,1.672243699E-2
1.757989210E1,-1.395063549E-1,-6.345362961E-2,8.269587904E-2
1.758989210E1,-1.614975035E-1,-7.933612168E-2,1.297325045E-1
1.759989210E1,-1.297325045E-1,-7.567093521E-2,1.413389444E-1
1.760989206E1,-5.032002553E-2,-5.367978290E-2,1.175151989E-1
1.761989206E1,6.269004941E-2,-4.512767121E-2,8.086328954E-2
1.762989206E1,1.811978966E-1,-5.734497309E-2,4.848742858E-2
1.763989206E1,2.795472145E-1,-7.200574130E-2,2.405281924E-2
1.764989206E1,3.253620863E-1,-5.184718594E-2,9.392052889E-3
1.765989206E1,3.406337202E-1,-2.557998151E-2,-4.046982154E-3
1.766989210E1,3.516293168E-1,-9.697485715E-3,-1.504255645E-2
1.767989213E1,3.632357419E-1,-7.254024968E-3,-8.323038928E-3
1.768989213E1,3.785073757E-1,-1.763873361E-2,2.527454868E-2
1.769989213E1,4.041637182E-1,-2.496911772E-2,4.298964143E-2
1.770989213E1,4.475351572E-1,-4.268420860E-2,5.887213722E-2
1.771989213E1,4.915174544E-1,-5.673411116E-2,6.436992437E-2
1.772989210E1,5.281693339E-1,-5.978843570E-2,5.642867833E-2
1.773989210E1,5.379431844E-1,-6.895141304E-2,4.176791012E-2
1.774989210E1,5.128977299E-1,-7.750352472E-2,2.893974073E-2
1.775989210E1,4.518111944E-1,-7.689265907E-2,1.794416644E-2
1.776989206E1,3.693444133E-1,-5.245805159E-2,1.427897532E-2
1.777989206E1,2.862667143E-1,-1.336267684E-2,1.305724494E-2
1.778989206E1,2.410627007E-1,4.352414981E-3,1.977676153E-2
1.779989206E1,2.490039468E-1,-1.145372284E-3,3.321579844E-2
1.780989203E1,2.887101769E-1,-2.680171281E-2,4.787656292E-2
1.781989203E1,3.412446082E-1,-6.467536092E-2,5.398521572E-2
1.782989203E1,3.931681514E-1,-9.644035250E-2,4.298964143E-2
1.783989203E1,4.298200607E-1,-1.043815985E-1,1.611157134E-2
1.784989203E1,4.560872614E-1,-9.949467331E-2,-1.992947794E-2
1.785989203E1,4.805218875E-1,-1.049924642E-1,-5.413793400E-2
1.786989206E1,4.909065962E-1,-1.007164046E-1,-7.918340713E-2
1.787989206E1,4.921283126E-1,-9.155342728E-2,-9.628763795E-2
1.788989206E1,4.970152378E-1,-8.239044994E-2,-1.060614809E-1
1.789989206E1,5.110651255E-1,-8.422304690E-2,-1.091158018E-1
1.790989206E1,5.269476175E-1,-8.177958429E-2,-1.048397496E-1
1.791989206E1,5.654321313E-1,-9.705121815E-2,-9.995282441E-2
1.792989209E1,6.283512712E-1,-1.147663072E-1,-9.995282441E-2
1.793989209E1,6.986007690E-1,-1.355357319E-1,-1.097266674E-1
1.794989253E1,7.499134541E-1,-1.526399553E-1,-1.195005104E-1
1.795989253E1,7.743480802E-1,-1.679115891E-1,-1.286634952E-1
1.796989249E1,7.719045877E-1,-1.734093726E-1,-1.341612786E-1
1.797989246E1,7.328092456E-1,-1.532508135E-1,-1.304960847E-1
1.798989246E1,6.753878593E-1,-1.373683214E-1,-1.164461896E-1
1.799989246E1,6.259077787E-1,-1.275944710E-1,-8.895725012E-2
1.800989246E1,5.800929070E-1,-1.123228446E-1,-5.108360574E-2
1.801989246E1,5.367214680E-1,-1.104902476E-1,-1.137736533E-2
1.802989246E1,5.159520507E-1,-1.422552466E-1,2.588541433E-2
1.803989246E1,5.245041847E-1,-1.825723499E-1,6.009386852E-2
1.804989246E1,5.629886985E-1,-2.143373489E-1,6.131559983E-2
1.805989246E1,6.088035703E-1,-2.314415723E-1,2.955060638E-2
1.806989246E1,6.411794424E-1,-2.314415723E-1,-2.542726509E-2
1.807989246E1,6.375142336E-1,-2.302198410E-1,-7.551821321E-2
1.808989246E1,6.020840406E-1,-2.173916698E-1,-1.115592644E-1
1.809989246E1,5.367214680E-1,-2.302198410E-1,-1.335504204E-1
1.810989246E1,4.383721650E-1,-2.302198410E-1,-1.366047412E-1
1.811989246E1,3.113121986E-1,-2.033417672E-1,-1.225548387E-1
1.812989246E1,1.811978966E-1,-1.660789847E-1,-8.834638447E-2
1.813989246E1,6.574437022E-2,-1.324813962E-1,-3.703370690E-2
1.814989246E1,-3.382666409E-2,-7.689265907E-2,9.392052889E-3
1.815989246E1,-6.864598393E-2,-2.863430791E-2,3.199406713E-2
1.816989242E1,-1.855503209E-2,-7.864889689E-3,3.138320148E-2
1.817989246E1,1.011745557E-1,-9.086620063E-3,1.366810966E-2
1.818989246E1,2.599995136E-1,-8.475755341E-3,-9.544769302E-3
1.819989246E1,4.182136059E-1,-4.810563754E-3,-3.275764734E-2
1.820989246E1,5.409975052E-1,6.795875728E-3,-3.947716579E-2
1.821989246E1,6.167448163E-1,3.367394581E-2,-3.275764734E-2
1.822989242E1,6.393468380E-1,6.421720982E-2,-1.443169173E-2
1.823989242E1,6.124687791E-1,1.075886413E-1,1.916589774E-2
1.824989199E1,5.202280879E-1,1.643991023E-1,9.552405030E-2
1.825989199E1,4.713588953E-1,1.686751693E-1,1.364520192E-1
1.826989199E1,4.505894780E-1,1.442405581E-1,1.590540409E-1
1.827989199E1,4.340961277E-1,1.136972904E-1,1.645518243E-1
1.828989199E1,4.072180390E-1,9.170614183E-2,1.559997052E-1
1.829989199E1,3.589596748E-1,7.276932150E-2,1.340085566E-1
1.830989202E1,2.917645276E-1,5.810855702E-2,1.169043332E-1
1.831989202E1,2.129628956E-1,6.910412759E-2,1.144608781E-1
1.832989202E1,1.213331074E-1,7.887797803E-2,1.260673106E-1
1.833989202E1,1.748601720E-2,8.743008971E-2,1.486693323E-1
1.834989202E1,-9.857837856E-2,1.014799923E-1,1.724930704E-1
1.835989202E1,-2.121993154E-1,1.143081561E-1,1.786017269E-1
1.836989202E1,-3.154355288E-1,1.417970955E-1,1.651626974E-1
1.837989202E1,-3.979023397E-1,1.747838110E-1,1.340085566E-1
1.838989202E1,-4.211152196E-1,1.747838110E-1,1.016327068E-1
1.839989202E1,-4.211152196E-1,1.204168126E-1,8.391761035E-2
1.840989202E1,-4.260021448E-1,9.476047009E-2,8.269587904E-2
1.841989202E1,-4.205043614E-1,9.903652966E-2,7.292203605E-2
1.842989206E1,-3.979023397E-1,9.842566401E-2,6.253732741E-2
1.843989206E1,-3.698025346E-1,8.132143319E-2,5.032002553E-2
1.844989206E1,-3.508657217E-1,5.749769136E-2,3.199406713E-2
1.845989206E1,-3.875176311E-1,4.894557595E-2,1.427897532E-2
1.846989209E1,-4.754822254E-1,8.498662710E-2,-5.268712528E-3
1.847989205E1,-5.689446330E-1,1.265254617E-1,-2.542726509E-2
1.848989205E1,-6.404158473E-1,1.442405581E-1,-5.047274008E-2
1.849989205E1,-6.789003611E-1,1.497383416E-1,-6.146831438E-2
1.850989209E1,-7.063893080E-1,1.497383416E-1,-5.841398984E-2
1.851989209E1,-7.070001364E-1,1.344667077E-1,-5.230533704E-2
1.852989209E1,-6.666830778E-1,8.498662710E-2,-5.719225854E-2
1.853989209E1,-6.141486168E-1,2.206750773E-2,-6.269004941E-2
1.854989209E1,-5.970444083E-1,-1.702786796E-2,-6.574437022E-2
1.855989209E1,-6.294202805E-1,-1.214094646E-2,-6.146831438E-2
1.856989209E1,-6.886742115E-1,3.428481147E-2,-5.841398984E-2
1.857989209E1,-7.381542921E-1,7.643451542E-2,-5.535966158E-2
1.858989209E1,-7.479281425E-1,9.292787313E-2,-5.474879593E-2
1.859989209E1,-7.179957628E-1,8.437576145E-2,-7.063129544E-2
1.860989205E1,-6.630178690E-1,7.948884368E-2,-9.262244403E-2
1.861989205E1,-6.117051840E-1,7.582364976E-2,-1.188896447E-1
1.862989205E1,-5.591707826E-1,6.971499324E-2,-1.506546438E-1
1.863989205E1,-5.066363811E-1,6.238461286E-2,-1.811978966E-1
1.864989205E1,-4.797582924E-1,7.093672454E-2,-1.970804036E-1
1.865989205E1,-4.925864637E-1,1.051451787E-1,-2.001347244E-1
1.866989209E1,-5.322927237E-1,1.460731477E-1,-1.830305010E-1
1.867989212E1,-6.007096171E-1,2.010510266E-1,-1.488220394E-1
1.868989212E1,-6.709591150E-1,2.432007194E-1,-1.017854214E-1
1.869989212E1,-7.112762332E-1,2.493093759E-1,-6.330090761E-2
1.870989212E1,-7.149413824E-1,2.493093759E-1,-3.642284125E-2
1.871989212E1,-6.697373986E-1,2.383138090E-1,-2.359467000E-2
1.872989208E1,-5.628359914E-1,1.955532432E-1,-2.603813075E-2
1.873989208E1,-4.223369658E-1,1.521818042E-1,-2.481640130E-2
1.874989209E1,-2.800053656E-1,1.472948790E-1,-1.320996135E-2
1.875989212E1,-1.712713391E-1,1.692860276E-1,7.559457328E-3
1.876989208E1,-1.114065498E-1,2.175443918E-1,2.405281924E-2
1.877989208E1,-1.004109755E-1,2.486985177E-1,2.222022414E-2
1.878989208E1,-6.253732741E-2,2.810743749E-1,2.283108793E-2
1.879989208E1,-5.459608138E-2,2.957351506E-1,3.627012298E-2
1.880989205E1,-8.758280426E-2,3.012329340E-1,6.559165567E-2
1.881989205E1,-1.321759671E-1,2.994003296E-1,9.674578160E-2
1.882989205E1,-1.578323096E-1,2.621375620E-1,1.278999150E-1
1.883989205E1,-1.315651089E-1,2.181552500E-1,1.456149966E-1
1.884989205E1,-6.436992437E-2,1.766164154E-1,1.456149966E-1
1.885989205E1,6.490443368E-3,1.802816093E-1,1.315651089E-1
1.886989208E1,5.780312419E-2,2.010510266E-1,1.004109755E-1
1.887985875E1,7.063129544E-2,2.120465934E-1,7.964155823E-2
1.888982542E1,6.513350457E-2,2.413681298E-1,4.421137273E-2
1.889979212E1,1.015563495E-2,2.609158158E-1,2.283108793E-2
1.890975882E1,-8.025242388E-2,2.688570619E-1,5.115996581E-3
1.891972548E1,-2.189188302E-1,1.686751693E-1,-4.657847341E-3
1.892969215E1,-3.013856411E-1,6.788240373E-2,2.344195358E-2
1.893965881E1,-3.893502355E-1,1.595885493E-2,6.742425263E-2
1.894962551E1,-4.443280995E-1,1.656972058E-2,1.083522215E-1
1.895959218E1,-4.394411743E-1,2.451096848E-2,1.364520192E-1
1.896955881E1,-3.826307058E-1,1.962404512E-2,1.566105783E-1
1.897952544E1,-3.032182455E-1,1.473712362E-2,1.700496078E-1
1.898949211E1,-2.005928755E-1,1.351539325E-2,1.682170182E-1
1.899945878E1,-8.636107296E-2,-3.588833380E-3,1.566105783E-1
1.900942544E1,7.101308554E-3,-3.352123126E-2,1.401172131E-1
1.901939211E1,7.185302675E-2,-4.268420860E-2,1.101848185E-1
1.902935878E1,1.304960847E-1,-4.573853686E-2,6.436992437E-2
1.903932544E1,1.921934783E-1,-8.116871864E-2,2.832887508E-2
1.904929211E1,1.989129931E-1,-8.788824081E-2,2.222022414E-2
1.905925874E1,1.378264725E-1,-6.406449527E-2,1.733330078E-2
1.906922541E1,4.680754989E-2,-3.229949996E-2,1.061378326E-2
1.907919207E1,-3.932445124E-2,-2.977967961E-3,-8.323038928E-3
1.908915874E1,-9.980010986E-2,8.628471754E-3,-3.520110995E-2
1.909912540E1,-1.376737505E-1,2.084577642E-2,-6.940956414E-2
1.910909210E1,-1.590540409E-1,3.245221451E-2,-1.152244583E-1
1.911905877E1,-1.633300930E-1,3.856086731E-2,-1.524872333E-1
1.912902544E1,-1.498910636E-1,1.656972058E-2,-1.640936732E-1
1.913899210E1,-1.224021241E-1,-1.519527286E-2,-1.598176211E-1
1.914895877E1,-1.089630872E-1,-3.535382450E-2,-1.433242559E-1
1.915892543E1,-1.132391468E-1,-1.153008174E-2,-1.292743534E-1
1.916889207E1,-1.065196246E-1,4.283692688E-2,-1.091158018E-1
1.917889207E1,-6.803511828E-2,8.132143319E-2,-9.140071273E-2
1.918889207E1,-1.122464892E-2,9.476047009E-2,-6.513350457E-2
1.919889203E1,4.619668424E-2,9.964739531E-2,-3.092505224E-2
1.920889200E1,1.072832122E-1,8.743008971E-2,2.672535367E-3
1.921889200E1,1.769218445E-1,6.421720982E-2,3.199406713E-2
1.922889200E1,2.514474094E-1,2.817615867E-2,4.543310404E-2
1.923889200E1,3.119230568E-1,3.741549561E-3,6.131559983E-2
1.924889197E1,3.614031374E-1,-1.397354249E-2,6.925684959E-2
1.925889196E1,4.176027477E-1,-3.291036561E-2,6.742425263E-2
1.926889196E1,4.609741867E-1,-3.840815276E-2,6.070473418E-2
1.927889196E1,4.890739918E-1,-4.512767121E-2,5.154175684E-2
1.928889196E1,5.031238794E-1,-4.818199575E-2,3.749185428E-2
1.929889197E1,5.147303343E-1,-6.895141304E-2,3.443752974E-2
1.930889200E1,5.055673718E-1,-9.277515858E-2,3.810271993E-2
1.931889200E1,4.890739918E-1,-1.104902476E-1,4.848742858E-2
1.932889200E1,4.817436039E-1,-1.257618815E-1,6.314819306E-2
1.933889200E1,4.951826334E-1,-1.453095675E-1,8.208502084E-2
1.934889200E1,5.202280879E-1,-1.721876413E-1,9.430231899E-2
1.935889200E1,5.434409976E-1,-1.868484020E-1,9.308059514E-2
1.936889200E1,5.635995269E-1,-1.795180291E-1,8.086328954E-2
1.937889200E1,5.715407729E-1,-1.520290822E-1,6.803511828E-2
1.938889200E1,5.739842653E-1,-1.214858219E-1,5.887213722E-2
1.939889203E1,5.733733773E-1,-1.159880385E-1,5.520694703E-2
1.940889200E1,5.666538477E-1,-1.288162023E-1,6.620252132E-2
1.941889200E1,5.538256764E-1,-1.501964927E-1,8.941540122E-2
1.942889200E1,5.312237144E-1,-1.575268805E-1,1.101848185E-1
1.943889200E1,5.183955431E-1,-1.673007160E-1,1.187369302E-1
1.944889200E1,5.238932967E-1,-1.929570585E-1,1.181260645E-1
1.945889200E1,5.361106396E-1,-2.125047445E-1,1.114065498E-1
1.946889200E1,5.703190565E-1,-2.314415723E-1,6.925684959E-2
1.947889200E1,5.923101902E-1,-2.320524305E-1,2.405281924E-2
1.948889200E1,6.081926823E-1,-2.241111845E-1,-2.725986205E-2
1.949889200E1,6.033058167E-1,-2.173916698E-1,-7.063129544E-2
1.950889203E1,5.916993618E-1,-2.106721550E-1,-9.995282441E-2
1.951889203E1,5.837581158E-1,-2.045634985E-1,-1.195005104E-1
1.952889203E1,5.855907202E-1,-1.886810064E-1,-1.311069578E-1
1.953889203E1,5.910884738E-1,-1.776854247E-1,-1.274417639E-1
1.954889206E1,5.978080034E-1,-1.654681265E-1,-1.164461896E-1
1.955889206E1,5.965862870E-1,-1.392009109E-1,-1.054506153E-1
1.956889206E1,5.953645110E-1,-1.202640980E-1,-9.384417534E-2
1.957889206E1,5.953645110E-1,-1.117119789E-1,-9.384417534E-2
1.958889206E1,5.953645110E-1,-1.202640980E-1,-1.078940704E-1
1.959889206E1,5.813146234E-1,-1.282053441E-1,-1.231657043E-1
1.960889203E1,5.367214680E-1,-1.196532324E-1,-1.311069578E-1
1.961889203E1,4.793001413E-1,-1.074359268E-1,-1.359938681E-1
1.962889203E1,4.383721650E-1,-1.300379336E-1,-1.384373307E-1
1.963889203E1,4.334852397E-1,-1.642463952E-1,-1.304960847E-1
1.964889206E1,4.414264858E-1,-1.899027377E-1,-1.103375331E-1
1.965889206E1,4.481460154E-1,-1.966222525E-1,-8.345946670E-2
1.966889210E1,4.634176493E-1,-1.947896481E-1,-6.696610153E-2
1.967889210E1,4.768566787E-1,-1.990657151E-1,-5.780312419E-2
1.968889210E1,4.866305292E-1,-1.978439838E-1,-5.597052723E-2
1.969889206E1,4.774675369E-1,-1.954005212E-1,-5.169447139E-2
1.970889206E1,4.505894780E-1,-1.740202308E-1,-4.436408728E-2
1.971889206E1,4.285983145E-1,-1.355357319E-1,-3.336851299E-2
1.972889206E1,4.212679565E-1,-9.155342728E-2,-2.237293869E-2
1.973889206E1,4.285983145E-1,-4.512767121E-2,-8.323038928E-3
1.974889246E1,4.481460154E-1,2.519819187E-3,9.392052889E-3
1.975889246E1,4.683045745E-1,3.184135258E-2,3.016147204E-2
1.976889246E1,4.909065962E-1,5.383250117E-2,5.032002553E-2
1.977889246E1,5.220606923E-1,7.215845585E-2,7.536549866E-2
1.978889246E1,5.489387512E-1,1.027017161E-1,9.369145334E-2
1.979889246E1,5.519931316E-1,1.515709460E-1,8.941540122E-2
1.980889243E1,5.330562592E-1,2.041053474E-1,7.292203605E-2
