"Time (s)","Gyroscope x (rad/s)","Gyroscope y (rad/s)","Gyroscope z (rad/s)"
3.493292700E-2,-2.913827300E-1,-3.512475267E-2,2.504547499E-2
4.343811200E-2,-2.458732575E-1,-3.420845419E-2,3.787364438E-2
5.343811200E-2,-1.907426715E-1,-3.176499158E-2,4.627304152E-2
6.343811200E-2,-1.534798890E-1,-3.924809024E-2,5.268712714E-2
7.343811200E-2,-1.434006095E-1,-4.398229718E-2,5.360342562E-2
8.343811200E-2,-1.547016203E-1,-4.444044828E-2,4.657847434E-2
9.343811200E-2,-1.731802970E-1,-3.191770986E-2,2.718350291E-2
1.034381120E-1,-2.469422817E-1,4.734205548E-3,-1.511891466E-2
1.134381120E-1,-2.806925774E-1,2.871066704E-2,-2.229658142E-2
1.234381120E-1,-2.835941911E-1,3.802636266E-2,-1.863138936E-2
1.334381120E-1,-2.452623993E-1,3.268129006E-2,-3.970623948E-3
1.434381120E-1,-1.684460938E-1,1.908953860E-2,1.206458826E-2
1.534381120E-1,-6.673702598E-2,1.084285788E-2,2.336559631E-2
1.634381120E-1,1.411098689E-1,-1.679879427E-2,3.985895589E-2
1.734381120E-1,1.921171248E-1,-4.856378585E-2,5.879577994E-2
1.834381120E-1,2.012801021E-1,-9.850201756E-2,7.681630552E-2
1.934381120E-1,1.744020283E-1,-1.690569520E-1,9.162978828E-2
2.034381120E-1,1.229366288E-1,-2.706133127E-1,1.038470939E-1
2.134381120E-1,4.886921868E-2,-3.950771093E-1,1.166752651E-1
2.234381120E-1,-6.505715102E-2,-5.992587805E-1,1.747074574E-1
2.334381120E-1,-1.924225502E-2,-6.571382880E-1,2.125810981E-1
2.434381120E-1,8.170322329E-2,-6.658431292E-1,2.432770878E-1
2.534381120E-1,1.893682331E-1,-6.282749176E-1,2.493857294E-1
2.634381120E-1,2.785545588E-1,-5.273294449E-1,2.185370475E-1
2.734381120E-1,3.404046595E-1,-3.795000315E-1,1.467603743E-1
2.834381120E-1,3.570507467E-1,-1.496619824E-2,-8.872817457E-2
2.934381120E-1,3.460551500E-1,1.478293836E-1,-2.151772827E-1
3.034381120E-1,3.526219726E-1,2.029599845E-1,-3.071125150E-1
3.134381120E-1,3.376557529E-1,1.085812971E-1,-3.313944042E-1
3.234381120E-1,2.915354371E-1,-1.055269688E-1,-2.742784917E-1
3.334381120E-1,2.232712507E-1,-3.998112977E-1,-1.676825136E-1
3.434381120E-1,6.918048859E-2,-9.650143981E-1,3.604105115E-2
3.534381120E-1,-2.489275858E-2,-1.107804179E0,6.475171447E-2
3.634381120E-1,-1.372919679E-1,-1.088714600E0,3.023782931E-2
3.734381120E-1,-2.486221492E-1,-9.457721114E-1,-3.817907721E-2
3.834381120E-1,-3.274237812E-1,-7.018841505E-1,-1.169806942E-1
3.934381120E-1,-3.425426781E-1,-3.973678350E-1,-1.902845204E-1
4.034381120E-1,-4.688390717E-2,1.481348276E-1,-3.019201458E-1
4.134381120E-1,-4.688390717E-2,1.481348276E-1,-3.019201458E-1
4.234381120E-1,4.257730842E-1,3.284927905E-1,-3.141374588E-1
4.334381120E-1,5.852088928E-1,2.922990322E-1,-2.532036304E-1
4.434381120E-1,6.676757336E-1,2.593123019E-1,-1.527163088E-1
4.534381120E-1,6.875288486E-1,2.496911734E-1,-4.413501546E-2
4.634381120E-1,6.875288486E-1,2.496911734E-1,-4.413501546E-2
4.734381120E-1,3.978259861E-1,2.591595948E-1,1.678352207E-1
4.834381120E-1,2.058615834E-1,2.394591719E-1,2.197587788E-1
4.934381120E-1,3.543018550E-2,1.939497143E-1,2.550362349E-1
5.034381120E-1,-5.574145541E-2,1.386664063E-1,2.602286041E-1
5.134381120E-1,-4.214970022E-2,8.597928286E-2,2.386955917E-1
5.234381120E-1,2.321287990E-1,2.748893574E-2,1.357648075E-1
5.334381120E-1,4.259257913E-1,3.863722831E-2,6.047565863E-2
5.434381120E-1,5.992587805E-1,1.157589629E-1,-1.511891466E-2
5.534381120E-1,7.195992470E-1,2.214386463E-1,-7.437284291E-2
5.634381120E-1,7.779368758E-1,3.486513495E-1,-1.130100712E-1
5.734381120E-1,7.814493775E-1,5.001459122E-1,-1.389718503E-1
5.834381120E-1,6.687447429E-1,7.250970602E-1,-1.362229437E-1
5.934381120E-1,5.835290551E-1,7.745771408E-1,-1.159116775E-1
6.034381120E-1,4.763221741E-1,7.925976515E-1,-7.819075137E-2
6.134381120E-1,4.013384581E-1,7.165449262E-1,-2.260201424E-2
6.234381120E-1,3.772092760E-1,6.466008425E-1,-1.221730490E-3
6.334381120E-1,3.373503387E-1,5.505422950E-1,2.214386500E-2
6.434381120E-1,3.023782969E-1,4.557054639E-1,5.085453019E-2
6.534381120E-1,2.852740586E-1,3.637702465E-1,8.735372871E-2
6.634381120E-1,2.701551616E-1,2.719877362E-1,1.398881376E-1
6.734381120E-1,1.660026312E-1,2.309070677E-1,2.730567753E-1
6.834381120E-1,1.003346145E-1,2.944370508E-1,3.371976018E-1
6.934381120E-1,8.246680722E-3,3.370448947E-1,3.866777122E-1
7.034381120E-1,-1.600466967E-1,3.037527502E-1,4.352414906E-1
7.134381120E-1,-4.494441152E-1,1.108720452E-1,5.134322643E-1
7.234381120E-1,-1.452790260E0,-6.409503818E-1,7.596109509E-1
7.334381120E-1,-1.887115479E0,-7.441865802E-1,8.623890281E-1
7.434381120E-1,-1.949881911E0,-5.242751241E-1,9.303477407E-1
7.534381120E-1,-1.619403720E0,-2.736676335E-1,8.927795291E-1
7.634381120E-1,-1.239140153E0,-1.666134894E-1,7.423539758E-1
7.734381120E-1,-1.199892044E0,-4.153883830E-2,5.245805383E-1
7.834381120E-1,-1.951408982E0,9.350819588E-1,-5.650503561E-3
7.934381120E-1,-2.182316065E0,1.492496490E0,-2.260201424E-1
8.034381120E-1,-2.190562725E0,1.884519339E0,-3.422372639E-1
8.134381120E-1,-2.035403013E0,2.120313168E0,-3.727805018E-1
8.234381120E-1,-1.765858650E0,2.204307318E0,-3.720169365E-1
8.334381120E-1,-1.428202987E0,2.056325197E0,-3.717114925E-1
8.434381120E-1,-8.121453524E-1,9.624181986E-1,-3.014619946E-1
8.534381120E-1,-6.424775124E-1,2.086104751E-1,-1.992947906E-1
8.634381120E-1,-5.792529583E-1,-4.934264123E-1,-6.948592514E-2
8.734381120E-1,-5.745187402E-1,-1.003957033E0,5.161811411E-2
8.834381120E-1,-5.595525503E-1,-1.261131287E0,1.301143020E-1
8.934381120E-1,-4.940372705E-1,-1.249219418E0,1.473712474E-1
9.034381120E-1,-2.362521291E-1,-5.261076689E-1,3.970624134E-2
9.134381120E-1,-2.362521291E-1,-5.261076689E-1,3.970624134E-2
9.234381120E-1,4.841107130E-2,3.778201640E-1,-1.432479024E-1
9.334381120E-1,1.653917581E-1,6.748533845E-1,-2.098322064E-1
9.434381120E-1,2.548835278E-1,8.258898258E-1,-2.457205504E-1
9.534381120E-1,3.150537610E-1,8.144360781E-1,-2.379320115E-1
9.634381120E-1,3.572034538E-1,3.593414724E-1,-1.336267740E-1
9.734381120E-1,3.521638215E-1,1.435533352E-2,-5.421429127E-2
9.834381120E-1,3.388774991E-1,-3.119994104E-1,3.039054573E-2
9.934381120E-1,3.141374588E-1,-5.742133260E-1,1.003346145E-1
1.003438112E0,2.910772860E-1,-7.356344461E-1,1.398881376E-1
1.013438112E0,2.735149264E-1,-8.034405112E-1,1.360702366E-1
1.023438112E0,1.881465018E-1,-5.742133260E-1,3.802636266E-2
1.033438112E0,1.252273768E-1,-3.168863356E-1,-3.955352306E-2
1.043438112E0,7.590000331E-2,-3.451388702E-2,-1.151480973E-1
1.053438112E0,6.994406879E-2,2.031126916E-1,-1.824959964E-1
1.063438112E0,9.911288321E-2,3.480404615E-1,-2.354885489E-1
1.073438112E0,1.330159009E-1,3.933972120E-1,-2.577851415E-1
1.083438112E0,1.282816976E-1,2.115120888E-1,-2.105957866E-1
1.093438112E0,9.086620808E-2,5.345070735E-2,-1.649336219E-1
1.103438112E0,2.855795063E-2,-1.290452778E-1,-1.075122803E-1
1.113438112E0,-5.955936015E-2,-3.196352422E-1,-3.985895589E-2
1.123438112E0,-1.670716405E-1,-4.697553813E-1,3.084869497E-2
1.133438112E0,-2.864958048E-1,-5.349652171E-1,8.720101416E-2
1.143438112E0,-4.735732675E-1,-3.625485301E-1,1.111774743E-1
1.153438112E0,-5.149593949E-1,-1.750128865E-1,6.963863969E-2
1.163438112E0,-4.955644310E-1,4.871650413E-2,1.084285788E-2
1.173438112E0,-4.005748928E-1,2.394591719E-1,-4.581489414E-2
1.183438112E0,-2.415972054E-1,3.558290005E-1,-8.017606288E-2
1.193438112E0,-4.627304152E-2,4.094324410E-1,-8.445212245E-2
1.203438112E0,2.977968156E-1,4.091269970E-1,-2.977968007E-2
1.213438112E0,4.043927789E-1,3.552181423E-1,1.023199316E-2
1.223438112E0,4.686863720E-1,2.861903608E-1,4.993823543E-2
1.233438112E0,4.876231849E-1,2.079996169E-1,8.735372871E-2
1.243438112E0,4.514294267E-1,1.348485053E-1,1.172861308E-1
1.253438112E0,3.764457107E-1,8.689557761E-2,1.432479024E-1
1.263438112E0,2.874121070E-1,5.314527452E-2,1.614211351E-1
1.273438112E0,3.262020350E-1,3.726277873E-2,1.430951804E-1
1.283438112E0,3.990477324E-1,2.061670274E-2,1.258382350E-1
1.293438112E0,4.941899776E-1,-1.130100712E-2,1.195768714E-1
1.303438112E0,6.139195561E-1,-6.795875728E-2,1.212567538E-1
1.313438112E0,7.522805333E-1,-1.195768714E-1,1.235474944E-1
1.323438112E0,1.004873276E0,-1.073595658E-1,1.062905490E-1
1.333438112E0,1.058323979E0,-5.910121277E-2,1.012509167E-1
1.343438112E0,1.064585447E0,-1.740965992E-2,1.105666086E-1
1.353438112E0,1.036791086E0,-7.177666761E-3,1.169806942E-1
1.363438112E0,9.841039181E-1,-3.573561832E-2,1.189660057E-1
1.373438112E0,8.448266387E-1,-2.557998300E-1,1.554652005E-1
1.383438112E0,8.278751373E-1,-4.066835344E-1,1.631010175E-1
1.393438112E0,8.720101118E-1,-5.218316317E-1,1.353066564E-1
1.403438112E0,9.630290866E-1,-5.616905689E-1,7.574728876E-2
1.413438112E0,1.064279914E0,-5.166392922E-1,4.123340361E-3
1.423438112E0,1.140485406E0,-3.798054755E-1,-7.605272532E-2
1.433438112E0,1.160033107E0,5.283984542E-2,-2.382374406E-1
1.443438112E0,1.112385631E0,2.845104933E-1,-2.826778889E-1
1.453438112E0,1.029766083E0,4.138612151E-1,-2.890919745E-1
1.463438112E0,9.243918061E-1,3.966042697E-1,-2.561052442E-1
1.473438112E0,7.814493775E-1,2.261728644E-1,-1.921171248E-1
1.483438112E0,5.870414972E-1,-3.298672289E-2,-9.346238524E-2
1.493438112E0,7.895433158E-2,-5.404630303E-1,1.148426682E-1
1.503438112E0,-1.449277848E-1,-6.627888083E-1,1.514945775E-1
1.513438112E0,-3.155119121E-1,-6.458373070E-1,1.279762685E-1
1.523438112E0,-4.321871698E-1,-4.830417037E-1,5.910121277E-2
1.533438112E0,-4.828889668E-1,-2.544253767E-1,-4.566217586E-2
1.543438112E0,-4.476115108E-1,-3.573561832E-2,-1.675297916E-1
1.553438112E0,-1.557706445E-1,2.026545405E-1,-4.227187634E-1
1.563438112E0,3.680463135E-2,2.165517360E-1,-5.212207437E-1
1.573438112E0,2.160935849E-1,1.644754708E-1,-5.740606189E-1
1.583438112E0,3.804163337E-1,5.207626149E-2,-5.771149397E-1
1.593438112E0,5.090034604E-1,-8.628471941E-2,-5.274821520E-1
1.603438112E0,5.642867684E-1,-1.966986060E-1,-4.337143302E-1
1.613438112E0,3.552181423E-1,-2.635883391E-1,-2.116648108E-1
1.623438112E0,1.178969890E-1,-2.533563673E-1,-1.099557430E-1
1.633438112E0,-1.534798890E-1,-2.107485086E-1,-2.916881628E-2
1.643438112E0,-3.955352604E-1,-1.340849251E-1,1.695151068E-2
1.653438112E0,-5.517640114E-1,-5.054909736E-2,2.504547499E-2
1.663438112E0,-5.864306092E-1,1.756237634E-2,-9.162978269E-3
1.673438112E0,-3.488040566E-1,1.424843222E-1,-1.310305893E-1
1.683438112E0,-1.313360333E-1,1.705841124E-1,-1.820378453E-1
1.693438112E0,1.276708394E-1,1.797471046E-1,-2.130392492E-1
1.703438112E0,3.987422884E-1,1.831068546E-1,-2.309070677E-1
1.713438112E0,6.436992288E-1,1.925752759E-1,-2.351831198E-1
1.723438112E0,8.313875794E-1,2.055561543E-1,-2.260201424E-1
1.733438112E0,1.022130251E0,2.467895597E-1,-1.737911552E-1
1.743438112E0,1.045037746E0,2.489275932E-1,-1.366810948E-1
1.753438112E0,1.032056808E0,2.443460971E-1,-1.036943719E-1
1.763438112E0,9.944885969E-1,2.235766798E-1,-7.192938030E-2
1.773438112E0,9.178250432E-1,1.759291887E-1,-4.352414981E-2
1.783438112E0,8.103127480E-1,1.189660057E-1,-9.773843922E-3
1.793438112E0,6.423248053E-1,-4.276056774E-3,6.688974798E-2
1.803438112E0,6.233879924E-1,-3.390302137E-2,8.536841720E-2
1.813438112E0,6.470590234E-1,-2.809980139E-2,8.445212245E-2
1.823438112E0,6.931793094E-1,1.649336144E-2,7.269296050E-2
1.833438112E0,7.344127297E-1,1.049161032E-1,5.482515693E-2
1.843438112E0,7.548767328E-1,2.110539377E-1,4.703662544E-2
1.853438112E0,7.192938328E-1,4.045455158E-1,1.006400511E-1
1.863438112E0,6.588181853E-1,4.670064747E-1,1.539380401E-1
1.873438112E0,5.531384945E-1,4.456261992E-1,2.086104751E-1
1.883438112E0,3.827070892E-1,3.135266006E-1,2.565633953E-1
1.893438112E0,9.178250283E-2,7.651086897E-2,3.155119121E-1
1.903438112E0,-4.138612151E-1,-2.858849466E-1,4.024074674E-1
1.913438112E0,-1.760055542E0,-7.189884186E-1,7.939720750E-1
1.923438112E0,-2.051132679E0,-4.740314186E-1,9.650143981E-1
1.933438112E0,-1.975385427E0,-3.300199509E-1,8.988882303E-1
1.943438112E0,-1.749365330E0,-3.552181423E-1,6.936374903E-1
1.953438112E0,-1.733024716E0,-3.086396754E-1,4.926628172E-1
1.963438112E0,-2.659554482E0,6.360634565E-1,8.888089657E-2
1.973438112E0,-3.086702108E0,1.282053471E0,-1.136209369E-1
1.983438112E0,-3.217732668E0,1.717142224E0,-3.083342314E-1
1.993438112E0,-3.065474510E0,1.873065591E0,-4.630358517E-1
2.003438112E0,-2.760805368E0,1.725541592E0,-5.338962078E-1
2.013438112E0,-2.405129194E0,1.258687854E0,-5.276348591E-1
2.023438112E0,-1.694692850E0,-2.386955917E-1,-3.877467215E-1
2.033438112E0,-1.473559737E0,-9.615018964E-1,-3.090978265E-1
2.043438112E0,-1.462869525E0,-1.420414448E0,-2.189951837E-1
2.053438112E0,-1.645212770E0,-1.521359921E0,-1.241583601E-1
2.063438112E0,-1.866498709E0,-1.282969713E0,-1.572977938E-2
2.073438112E0,-2.010968447E0,-8.752171993E-1,7.162395120E-2
2.083438112E0,-2.084119558E0,-3.985895589E-2,9.514226019E-2
2.093438112E0,-2.047009468E0,3.472768962E-1,4.642575979E-2
2.103438112E0,-1.940871596E0,6.516404748E-1,-3.344487399E-2
2.113438112E0,-1.751808763E0,8.035932183E-1,-1.107193232E-1
2.123438112E0,-1.466534734E0,7.504479289E-1,-1.626428664E-1
2.133438112E0,-1.100779176E0,5.268712640E-1,-1.823432744E-1
2.143438112E0,-3.952298164E-1,-1.478293836E-1,-4.841107130E-2
2.153438112E0,-1.780672222E-1,-3.885102868E-1,6.093380973E-2
2.163438112E0,-1.878410578E-2,-5.080871582E-1,1.288925707E-1
2.173438112E0,1.165225431E-1,-5.338962078E-1,1.444696337E-1
2.183438112E0,2.101376504E-1,-4.735732675E-1,1.374446750E-1
2.193438112E0,2.364048511E-1,-3.304781020E-1,1.276708394E-1
2.203438112E0,1.553124934E-1,4.657847434E-2,7.574728876E-2
2.213438112E0,1.171334088E-1,1.939497143E-1,3.451388702E-2
2.223438112E0,8.933904022E-2,2.852740586E-1,-1.527163084E-3
2.233438112E0,6.566801667E-2,3.342960179E-1,-1.527163107E-2
2.243438112E0,5.986479297E-2,3.396410644E-1,-9.773843922E-3
2.253438112E0,6.627888232E-2,2.838996351E-1,1.267545391E-2
2.263438112E0,1.035416573E-1,1.006400511E-1,1.101084575E-1
2.273438112E0,1.215621829E-1,2.260201424E-2,1.624901593E-1
2.283438112E0,1.351539344E-1,-5.161811411E-2,2.055561543E-1
2.293438112E0,1.391245574E-1,-9.468411654E-2,2.420553565E-1
2.303438112E0,1.394299865E-1,-9.666942805E-2,2.565633953E-1
2.313438112E0,1.354593635E-1,-6.154467165E-2,2.435825169E-1
2.323438112E0,8.735372871E-2,1.404990070E-2,2.188424766E-1
2.333438112E0,4.306599870E-2,1.740965992E-2,2.290744632E-1
2.343438112E0,-6.108652335E-3,-1.511891466E-2,2.484694421E-1
2.353438112E0,-5.299255997E-2,-7.040221989E-2,2.632829249E-1
2.363438112E0,-9.025534242E-2,-1.098030284E-1,2.777909636E-1
2.373438112E0,-1.050688252E-1,-1.372919679E-1,2.898555696E-1
2.383438112E0,-2.947424725E-2,-1.766927689E-1,3.200933933E-1
2.393438112E0,8.109235764E-2,-1.988366395E-1,3.233004212E-1
2.403438112E0,2.243402600E-1,-2.183843255E-1,3.078760803E-1
2.413438112E0,3.869831264E-1,-2.324342281E-1,2.739730477E-1
2.423438112E0,5.626068711E-1,-2.432770878E-1,2.310597748E-1
2.433438112E0,7.275404930E-1,-2.388483137E-1,1.931861341E-1
2.443438112E0,9.274461865E-1,-2.121229619E-1,1.542434692E-1
2.453438112E0,9.418014884E-1,-1.855503172E-1,1.505782902E-1
2.463438112E0,8.978192210E-1,-1.333213449E-1,1.484402567E-1
2.473438112E0,7.987062931E-1,-5.115996301E-2,1.429424733E-1
2.483438112E0,6.632469296E-1,5.115996301E-2,1.354593635E-1
2.493438112E0,5.254968405E-1,1.424843222E-1,1.314887404E-1
2.503438112E0,3.824016452E-1,2.721404731E-1,1.113301888E-1
2.513438112E0,4.222606122E-1,3.135266006E-1,7.360926270E-2
2.523438112E0,5.313000679E-1,3.226895630E-1,2.474004216E-2
2.533438112E0,6.864598393E-1,2.822197378E-1,-1.374446787E-2
2.543438112E0,8.524624705E-1,2.054034323E-1,-2.626720630E-2
2.553438112E0,1.004109740E0,9.651670605E-2,-1.893682219E-2
2.563438112E0,1.004109740E0,9.651670605E-2,-1.893682219E-2
2.573438112E0,1.171486855E0,-3.921754956E-1,5.390885845E-2
2.583438112E0,1.123992085E0,-4.938845634E-1,5.253441259E-2
2.593438112E0,1.043052435E0,-5.250386596E-1,3.039054573E-2
2.603438112E0,9.433286786E-1,-4.809036553E-1,-8.399397135E-3
2.613438112E0,7.344127297E-1,-2.952006161E-1,-1.027780771E-1
2.623438112E0,6.261368990E-1,-1.779145002E-1,-1.366810948E-1
2.633438112E0,5.279402733E-1,-5.283984542E-2,-1.605048478E-1
2.643438112E0,4.450153410E-1,6.001751125E-2,-1.849394590E-1
2.653438112E0,3.630066812E-1,1.324050426E-1,-1.944078654E-1
2.663438112E0,2.725986242E-1,1.681406647E-1,-1.844813079E-1
2.673438112E0,7.391469181E-2,2.034181207E-1,-1.623374373E-1
2.683438112E0,-7.467827946E-2,1.692096740E-1,-1.418734491E-1
2.693438112E0,-2.817615867E-1,1.084285825E-1,-1.070541367E-1
2.703438112E0,-5.102251768E-1,4.444044828E-2,-7.773260027E-2
2.713438112E0,-7.009678483E-1,-1.175915636E-2,-7.666359097E-2
2.723438112E0,-8.054258227E-1,-4.581489414E-2,-1.142318025E-1
2.733438112E0,-6.421720982E-1,-9.941831976E-2,-2.837468982E-1
2.743438112E0,-3.914119005E-1,-1.247692257E-1,-4.010330439E-1
2.753438112E0,-7.590000331E-2,-1.214094684E-1,-5.137376785E-1
2.763438112E0,2.649627924E-1,-9.483683109E-2,-6.088799238E-1
2.773438112E0,5.853615999E-1,-4.764748737E-2,-6.776022911E-1
2.783438112E0,8.440630436E-1,1.817324013E-2,-6.933320761E-1
2.793438112E0,1.109483957E0,8.338310570E-2,-5.283984542E-1
2.803438112E0,1.092837930E0,4.642575979E-2,-3.909537494E-1
2.813438112E0,9.888381362E-1,-6.108652451E-4,-2.512183189E-1
2.823438112E0,8.326093554E-1,-5.619960278E-2,-1.226311997E-1
2.833438112E0,6.382014751E-1,-1.133155003E-1,-2.260201424E-2
2.843438112E0,4.164573848E-1,-1.800525337E-1,4.550946131E-2
2.853438112E0,-4.978551716E-2,-2.820670307E-1,1.021672115E-1
2.863438112E0,-2.412917763E-1,-2.480112910E-1,8.246681094E-2
2.873438112E0,-3.675881624E-1,-1.308778822E-1,3.985895589E-2
2.883438112E0,-3.993531466E-1,5.329799280E-2,-1.359175146E-2
2.893438112E0,-3.284927905E-1,2.573269904E-1,-5.910121277E-2
2.903438112E0,-1.577559561E-1,4.265366495E-1,-9.224065393E-2
2.913438112E0,3.707951903E-1,5.870414972E-1,-1.131627858E-1
2.923438112E0,6.192646623E-1,5.991060734E-1,-1.035416573E-1
2.933438112E0,8.141306639E-1,5.815436840E-1,-7.788532227E-2
2.943438112E0,9.408851862E-1,5.409211516E-1,-3.604105115E-2
2.953438112E0,1.000902653E0,5.002986193E-1,1.084285788E-2
2.963438112E0,1.013883591E0,4.518875778E-1,4.459316283E-2
2.973438112E0,9.147707224E-1,2.964223623E-1,8.811730891E-2
2.983438112E0,8.190175891E-1,2.003637999E-1,1.059851199E-1
2.993438112E0,7.437284589E-1,1.217148975E-1,1.049161032E-1
3.003438112E0,7.244861722E-1,8.185594529E-2,8.368854225E-2
3.013438112E0,7.556403279E-1,8.582656831E-2,4.963280261E-2
3.023438112E0,8.165740967E-1,1.281289905E-1,1.145372353E-2
3.033438112E0,9.911288619E-1,2.063197345E-1,-1.023199316E-2
3.043438112E0,1.070694089E0,1.667662114E-1,1.542434748E-2
3.053438112E0,1.090394497E0,6.918048859E-2,5.497787148E-2
3.063438112E0,9.900598526E-1,-1.104138941E-1,9.957103431E-2
3.073438112E0,6.837109327E-1,-3.811798990E-1,1.618792862E-1
3.083438112E0,9.972374886E-2,-6.681338549E-1,2.776382565E-1
3.093438112E0,-1.321148753E0,-6.162103415E-1,7.579310536E-1
3.103438112E0,-1.679574013E0,-3.356704414E-1,7.841982841E-1
3.113438112E0,-1.738216996E0,-2.315179259E-1,5.813909769E-1
3.123438112E0,-1.650710583E0,-3.039054573E-1,3.495676219E-1
3.133438112E0,-1.685071826E0,-2.910772860E-1,1.768454909E-1
3.143438112E0,-1.877188921E0,-1.710422710E-2,4.321871698E-2
3.153438112E0,-2.073887587E0,6.814202070E-1,-1.392772794E-1
3.163438112E0,-1.978897929E0,8.520042896E-1,-1.568396538E-1
3.173438112E0,-1.827708840E0,8.987354636E-1,-1.288925707E-1
3.183438112E0,-1.648877978E0,8.349000812E-1,-1.098030284E-1
3.193438112E0,-1.445001721E0,6.502660513E-1,-1.229366288E-1
3.203438112E0,-1.236391306E0,3.385720551E-1,-1.539380401E-1
3.213438112E0,-9.743300676E-1,-4.303545654E-1,-1.521054506E-1
3.223438112E0,-9.408851862E-1,-7.107416987E-1,-9.300423414E-2
3.233438112E0,-9.399688840E-1,-8.932377100E-1,-1.313360315E-2
3.243438112E0,-9.262244105E-1,-9.981538057E-1,5.635231733E-2
3.253438112E0,-8.941540122E-1,-9.841039181E-1,9.605856240E-2
3.263438112E0,-8.538368940E-1,-5.775730610E-1,6.872233748E-2
3.273438112E0,-8.448266387E-1,-2.083050460E-1,1.557706390E-2
3.283438112E0,-8.294022679E-1,1.722639948E-1,-4.337143153E-2
3.293438112E0,-8.147414923E-1,4.978551865E-1,-8.155050874E-2
3.303438112E0,-8.084801435E-1,7.147123218E-1,-8.613199741E-2
3.313438112E0,-8.182539940E-1,7.870998979E-1,-6.811147183E-2
3.323438112E0,-8.518515825E-1,5.830708742E-1,2.443460980E-3
3.333438112E0,-8.607091308E-1,4.034765065E-1,3.665191308E-2
3.343438112E0,-8.349000812E-1,2.272418737E-1,6.062837690E-2
3.353438112E0,-7.460191846E-1,6.933320314E-2,6.551529467E-2
3.363438112E0,-5.832235813E-1,-8.521570265E-2,5.207626149E-2
3.373438112E0,-3.759875596E-1,-2.386955917E-1,3.512475267E-2
3.383438112E0,7.467827946E-2,-4.876231849E-1,1.053742506E-2
3.393438112E0,2.611449063E-1,-5.736024380E-1,-4.886921961E-3
3.403438112E0,3.567453027E-1,-6.110179424E-1,-1.191187184E-2
3.413438112E0,3.411682248E-1,-5.859724879E-1,-9.468411095E-3
3.423438112E0,2.331978083E-1,-5.134322643E-1,-1.756237634E-2
3.433438112E0,6.918048859E-2,-4.121813178E-1,-4.581489414E-2
3.443438112E0,6.918048859E-2,-4.121813178E-1,-4.581489414E-2
3.453438112E0,-4.743368626E-1,-2.611448988E-2,-9.865473956E-2
3.463438112E0,-6.056728959E-1,6.444628537E-2,-7.803803682E-2
3.473438112E0,-6.652322412E-1,8.552113175E-2,-3.955352306E-2
3.483438112E0,-6.305656433E-1,5.177082866E-2,1.069014193E-3
3.493438112E0,-5.094616413E-1,1.832595794E-3,2.977968007E-2
3.503438112E0,-1.679879427E-1,-6.566801667E-2,5.711590126E-2
3.513438112E0,-1.588249579E-2,-1.017090604E-1,4.810563847E-2
3.523438112E0,8.155050874E-2,-1.195768714E-1,3.222314268E-2
3.533438112E0,1.151480973E-1,-1.012509167E-1,2.153299935E-2
3.543438112E0,7.971791178E-2,-4.963280261E-2,1.634064503E-2
3.553438112E0,5.497787148E-3,3.756821156E-2,8.093964309E-3
3.563438112E0,-7.254024595E-2,2.596177161E-1,-2.794708498E-2
3.573438112E0,-3.313944116E-2,3.520110846E-1,-2.962696366E-2
3.583438112E0,6.520986557E-2,3.903428912E-1,-2.031126991E-2
3.593438112E0,2.119702399E-1,3.605632186E-1,1.527163113E-4
3.603438112E0,3.972151279E-1,2.727513313E-1,2.306016348E-2
3.613438112E0,5.905539989E-1,1.722639948E-1,4.474587739E-2
3.623438112E0,8.524624705E-1,3.054326167E-3,7.116580009E-2
3.633438112E0,8.907942176E-1,-6.963863969E-2,6.001751125E-2
3.643438112E0,8.494081497E-1,-1.211040318E-1,4.016438872E-2
3.653438112E0,7.284567952E-1,-1.356120855E-1,2.275473066E-2
3.663438112E0,5.687155724E-1,-1.088867337E-1,2.443460980E-3
3.673438112E0,4.286746979E-1,-7.574728876E-2,-2.748893574E-2
3.683438112E0,3.248275816E-1,-3.985895589E-2,-9.804387391E-2
3.693438112E0,3.732386529E-1,-3.375030309E-2,-1.207986027E-1
3.703438112E0,4.918992519E-1,-2.183843218E-2,-1.278235465E-1
3.713438112E0,6.791294217E-1,1.527163084E-3,-1.235474944E-1
3.723438112E0,8.941540122E-1,6.414085161E-3,-1.151480973E-1
3.733438112E0,1.067487001E0,-1.343903504E-2,-9.468411654E-2
3.743438112E0,1.160033107E0,-9.743300825E-2,-2.840523422E-2
3.753438112E0,1.094212413E0,-1.432479024E-1,7.788531948E-3
3.763438112E0,9.683741331E-1,-1.858557463E-1,3.817907721E-2
3.773438112E0,7.991644740E-1,-1.879937798E-1,5.787948146E-2
3.783438112E0,6.253733039E-1,-1.488984078E-1,4.795292020E-2
3.793438112E0,4.717406929E-1,-9.086620808E-2,4.886921961E-3
3.803438112E0,2.794708610E-1,8.124507964E-2,-8.811730891E-2
3.813438112E0,2.725986242E-1,1.438587606E-1,-9.453139454E-2
3.823438112E0,3.100140989E-1,1.753183305E-1,-7.834346592E-2
3.833438112E0,3.509420753E-1,1.805106848E-1,-3.039054573E-2
3.843438112E0,3.601050675E-1,1.435533315E-1,3.970624134E-2
3.853438112E0,3.013092875E-1,6.200282276E-2,1.088867337E-1
3.863438112E0,5.406157300E-2,-8.246681094E-2,1.340849251E-1
3.873438112E0,-8.567385375E-2,-1.120937690E-1,8.155050874E-2
3.883438112E0,-1.962404549E-1,-1.204931661E-1,-2.901609987E-3
3.893438112E0,-2.784018219E-1,-9.147707373E-2,-9.850201756E-2
3.903438112E0,-3.187189400E-1,-3.115412779E-2,-1.863138974E-1
3.913438112E0,-3.187189400E-1,-3.115412779E-2,-1.863138974E-1
3.923438112E0,2.993239649E-2,6.276640296E-2,-3.005456924E-1
3.933438112E0,2.551889420E-1,4.352414981E-2,-3.107776940E-1
3.943438112E0,4.815145433E-1,-3.161227703E-2,-3.083342314E-1
3.953438112E0,6.785185933E-1,-1.560760736E-1,-2.930625975E-1
3.963438112E0,8.069530129E-1,-3.100140989E-1,-2.538145185E-1
3.973438112E0,8.394815922E-1,-4.074471295E-1,-1.580613852E-1
3.983438112E0,7.907650471E-1,-2.869539559E-1,-1.814269722E-1
3.993438112E0,6.898195744E-1,-1.365283877E-1,-2.096794993E-1
4.003438112E0,5.371032953E-1,1.237002108E-2,-1.962404549E-1
4.013438112E0,3.284927905E-1,1.197295859E-1,-1.501201391E-1
4.023438112E0,9.544769675E-2,1.505782902E-1,-8.949175477E-2
4.033438112E0,-2.689334154E-1,-4.153883830E-2,1.832595654E-2
4.043438112E0,-3.946189582E-1,-1.951714456E-1,6.505715102E-2
4.053438112E0,-4.705189466E-1,-3.257438838E-1,1.084285825E-1
4.063438112E0,-4.883867502E-1,-3.918700516E-1,1.476766765E-1
4.073438112E0,-4.425718784E-1,-3.765984178E-1,1.676825136E-1
4.083438112E0,-3.216205537E-1,-2.939788997E-1,1.592831165E-1
4.093438112E0,8.261952549E-2,-7.024950534E-2,1.050688252E-1
4.103438112E0,3.144428730E-1,5.360342562E-2,8.704829961E-2
4.113438112E0,5.418374538E-1,1.806633919E-1,7.513642311E-2
4.123438112E0,7.244861722E-1,2.953533530E-1,6.505715102E-2
4.133438112E0,8.362745047E-1,3.714060783E-1,7.131851465E-2
4.143438112E0,8.827002645E-1,4.111123085E-1,9.483683109E-2
4.153438112E0,8.492553830E-1,3.539963961E-1,1.473712474E-1
4.163438112E0,7.918340564E-1,2.597704530E-1,1.727221459E-1
4.173438112E0,7.171558142E-1,1.467603743E-1,2.037235647E-1
4.183438112E0,6.397286057E-1,5.711590126E-2,2.339613885E-1
4.193438112E0,5.723807216E-1,1.924225502E-2,2.603813112E-1
4.203438112E0,5.445863605E-1,2.641992271E-2,2.718350291E-1
4.213438112E0,6.792821288E-1,1.253800988E-1,2.142609805E-1
4.223438112E0,7.973318696E-1,2.102903575E-1,1.701259762E-1
4.233438112E0,9.098837972E-1,2.805398703E-1,1.562287807E-1
4.243438112E0,9.964739084E-1,3.170390725E-1,1.664607823E-1
4.253438112E0,1.027169943E0,2.744311988E-1,1.898263693E-1
4.263438112E0,9.424123764E-1,1.070541367E-1,2.188424766E-1
4.273438112E0,1.368338168E-1,-3.039054573E-1,3.459024429E-1
4.283438112E0,1.368338168E-1,-3.039054573E-1,3.459024429E-1
4.293438112E0,-4.903720617E-1,-4.091269970E-1,5.002986193E-1
4.303438112E0,-1.315498352E0,-2.744311988E-1,7.783950567E-1
4.313438112E0,-1.342070937E0,-2.524400651E-1,6.090326309E-1
4.323438112E0,-1.392467380E0,-2.287690341E-1,3.402519524E-1
4.333438112E0,-2.104430676E0,7.528914511E-2,-3.863722831E-2
4.343438112E0,-2.686585426E0,4.108068645E-1,-1.537853181E-1
4.353438112E0,-3.177873611E0,8.014551997E-1,-1.941024363E-1
4.363438112E0,-3.472616196E0,1.153771758E0,-2.000583708E-1
4.373438112E0,-3.540269613E0,1.354135513E0,-2.185370475E-1
4.383438112E0,-3.378084898E0,1.383762479E0,-2.840523422E-1
4.393438112E0,-2.503783941E0,9.190467596E-1,-4.598288238E-1
4.403438112E0,-2.058615923E0,5.178610086E-1,-4.667010605E-1
4.413438112E0,-1.751961470E0,7.498370856E-2,-3.941608071E-1
4.423438112E0,-1.561066151E0,-3.837760985E-1,-2.609921694E-1
4.433438112E0,-1.460120678E0,-7.767151594E-1,-8.750644326E-2
4.443438112E0,-1.435991526E0,-1.076191902E0,7.757988572E-2
4.453438112E0,-1.582904577E0,-1.220966935E0,2.327396572E-1
4.463438112E0,-1.686446190E0,-9.627236128E-1,2.229658216E-1
4.473438112E0,-1.769065738E0,-5.520694852E-1,1.942551434E-1
4.483438112E0,-1.807550311E0,-1.105666086E-1,1.580613852E-1
4.493438112E0,-1.816102386E0,2.994766831E-1,1.241583601E-1
4.503438112E0,-1.777923346E0,8.194757104E-1,5.543602258E-2
4.513438112E0,-1.689653277E0,8.405506015E-1,5.650503561E-3
4.523438112E0,-1.554652095E0,7.073819637E-1,-4.062253982E-2
4.533438112E0,-1.360396862E0,4.969388843E-1,-7.696902007E-2
4.543438112E0,-1.114676356E0,2.811507285E-1,-9.926560521E-2
4.553438112E0,-8.280278444E-1,9.117163718E-2,-9.361509979E-2
4.563438112E0,-2.666426897E-1,-2.134974003E-1,-1.099557430E-2
4.573438112E0,-6.826419383E-2,-2.926044464E-1,3.497203439E-2
4.583438112E0,7.971791178E-2,-3.113885522E-1,7.101308554E-2
4.593438112E0,1.892155111E-1,-2.548835278E-1,8.048149943E-2
4.603438112E0,2.611449063E-1,-1.307251602E-1,5.238169432E-2
4.613438112E0,2.900082767E-1,-4.123340361E-3,5.803219974E-3
4.623438112E0,2.715296149E-1,1.450804919E-1,-5.696318299E-2
4.633438112E0,2.209804952E-1,1.614211351E-1,-5.711590126E-2
4.643438112E0,1.379028261E-1,1.324050426E-1,-3.558290005E-2
4.653438112E0,4.001167417E-2,7.681630552E-2,1.175915636E-2
4.663438112E0,-4.703662544E-2,-1.374446787E-2,8.475755155E-2
4.673438112E0,-9.010262042E-2,-1.435533315E-1,1.682933718E-1
4.683438112E0,2.443460980E-3,-3.784310222E-1,2.787072659E-1
4.693438112E0,1.049161032E-1,-4.089742899E-1,2.860376537E-1
4.703438112E0,2.054034323E-1,-3.527746797E-1,2.602286041E-1
4.713438112E0,2.883284092E-1,-2.541199327E-1,2.081523389E-1
4.723438112E0,3.582724631E-1,-1.379028261E-1,1.432479024E-1
4.733438112E0,4.259257913E-1,-1.786780916E-2,9.101892263E-2
4.743438112E0,4.259257913E-1,-1.786780916E-2,9.101892263E-2
4.753438112E0,5.216789246E-1,2.000583708E-1,6.505715102E-2
4.763438112E0,4.969388843E-1,2.296853364E-1,7.131851465E-2
4.773438112E0,4.491386712E-1,2.457205504E-1,8.506298810E-2
4.783438112E0,3.834706545E-1,2.365575731E-1,1.070541367E-1
4.793438112E0,3.181080818E-1,2.025018334E-1,1.298088580E-1
4.803438112E0,2.944370508E-1,1.278235465E-1,1.821905524E-1
4.813438112E0,3.588833213E-1,9.315694869E-2,1.976149082E-1
4.823438112E0,4.590652287E-1,5.222897977E-2,2.040289938E-1
4.833438112E0,5.780312419E-1,-1.007927675E-2,2.009746730E-1
4.843438112E0,7.058547735E-1,-7.238753140E-2,1.954768747E-1
4.853438112E0,8.275696635E-1,-1.282816976E-1,1.857030392E-1
4.863438112E0,1.000291824E0,-2.188424766E-1,1.557706445E-1
4.873438112E0,1.015105367E0,-2.339613885E-1,1.392772794E-1
4.883438112E0,9.738719463E-1,-2.203696370E-1,1.266018152E-1
4.893438112E0,8.897252083E-1,-2.127338201E-1,1.104138941E-1
4.903438112E0,7.941248417E-1,-2.165517360E-1,8.216137439E-2
4.913438112E0,7.176139355E-1,-2.345722616E-1,4.520402849E-2
4.923438112E0,6.817256212E-1,-3.178026378E-1,-2.764165215E-2
4.933438112E0,7.342600226E-1,-3.602577746E-1,-4.596760869E-2
4.943438112E0,8.184067011E-1,-3.724750876E-1,-5.299255997E-2
4.953438112E0,9.175195694E-1,-3.393356502E-1,-5.925392732E-2
4.963438112E0,1.012509108E0,-2.751947939E-1,-6.658431143E-2
4.973438112E0,1.102764487E0,-2.011273801E-1,-7.635815442E-2
4.983438112E0,1.243263483E0,-3.527746722E-2,-1.356120855E-1
4.993438112E0,1.260215044E0,5.467243865E-2,-1.855503172E-1
5.003438112E0,1.227686405E0,1.588249654E-1,-2.328923792E-1
5.013438112E0,1.160491228E0,2.838996351E-1,-2.701551616E-1
5.023438112E0,1.074053764E0,4.101960063E-1,-3.028364480E-1
5.033438112E0,9.605855942E-1,4.999932051E-1,-3.100140989E-1
5.043438112E0,7.005097270E-1,4.399756789E-1,-1.847867370E-1
5.053438112E0,5.884159207E-1,2.878702581E-1,-9.010262042E-2
5.063438112E0,4.789183438E-1,1.000291854E-1,-9.621127509E-3
5.073438112E0,3.788891733E-1,-5.635231733E-2,3.619376570E-2
5.083438112E0,3.123048544E-1,-1.518000066E-1,4.214970022E-2
5.093438112E0,2.872593701E-1,-1.753183305E-1,2.901609987E-3
5.103438112E0,3.072652221E-1,-6.215553731E-2,-1.408044398E-1
5.113438112E0,3.381139040E-1,1.130100712E-2,-2.189951837E-1
5.123438112E0,3.892738819E-1,4.306599870E-2,-3.028364480E-1
5.133438112E0,4.946481287E-1,1.893682219E-2,-3.843869567E-1
5.143438112E0,6.714936495E-1,-4.031710699E-2,-4.595233798E-1
5.153438112E0,1.116356254E0,-1.211040318E-1,-5.936083198E-1
5.163438112E0,1.303280950E0,-7.437284291E-2,-6.262896061E-1
5.173438112E0,1.466229320E0,1.802052557E-2,-6.021603942E-1
5.183438112E0,1.594358325E0,1.269072592E-1,-5.409211516E-1
5.193438112E0,1.664149642E0,2.251038402E-1,-4.589125216E-1
5.203438112E0,1.640936732E0,2.809980214E-1,-3.674354553E-1
5.213438112E0,1.248608589E0,2.547308207E-1,-1.288925707E-1
5.223438112E0,9.149234295E-1,1.281289905E-1,-6.719517522E-3
5.233438112E0,5.447390676E-1,-1.863138936E-2,9.285151958E-2
5.243438112E0,1.795943826E-1,-1.780672222E-1,1.601994038E-1
5.253438112E0,-1.391245574E-1,-3.170390725E-1,1.849394590E-1
5.263438112E0,-3.846924007E-1,-4.269948006E-1,2.029599845E-1
5.273438112E0,-7.279986739E-1,-4.615086913E-1,1.739438772E-1
5.283438112E0,-8.097018600E-1,-3.393356502E-1,1.414152980E-1
5.293438112E0,-7.904596329E-1,-2.252565622E-1,1.084285825E-1
5.303438112E0,-6.814202070E-1,-1.556179225E-1,8.170322329E-2
5.313438112E0,-5.001459122E-1,-8.139779419E-2,5.436700583E-2
5.323438112E0,-2.628247738E-1,3.711006418E-2,1.893682219E-2
5.333438112E0,2.359467000E-1,2.974913716E-1,-4.001167417E-2
5.343438112E0,4.419609904E-1,3.683517575E-1,-6.108652428E-2
5.353438112E0,6.101016402E-1,4.045455158E-1,-7.712173462E-2
5.363438112E0,7.250970602E-1,4.083634019E-1,-7.696902007E-2
5.373438112E0,7.790058851E-1,3.775147200E-1,-4.718934000E-2
5.383438112E0,7.790058851E-1,3.775147200E-1,-4.718934000E-2
5.383438112E0,7.745771408E-1,3.051272035E-1,9.162978968E-4
5.403438112E0,5.888741016E-1,2.871066704E-2,1.392772794E-1
5.413438112E0,5.343543887E-1,-2.015855350E-2,1.704314053E-1
5.423438112E0,5.215262175E-1,-5.849034712E-2,1.962404549E-1
5.433438112E0,6.418666840E-1,-2.031126991E-2,2.228130996E-1
5.443438112E0,6.983717084E-1,2.977968007E-2,2.243402600E-1
5.453438112E0,9.337075353E-1,2.519819140E-1,1.977676302E-1
5.463438112E0,1.078329921E0,3.813326359E-1,1.835650057E-1
5.473438112E0,1.228602767E0,4.276056588E-1,1.698205322E-1
5.483438112E0,1.348332286E0,3.772092760E-1,1.676825136E-1
5.493438112E0,1.409266114E0,2.086104751E-1,1.800525337E-1
5.503438112E0,1.388802171E0,-9.193521738E-2,1.759291887E-1
5.513438112E0,8.042041063E-1,-7.147123218E-1,1.434006095E-1
5.523438112E0,1.979203373E-1,-6.246097088E-1,2.328923792E-1
5.533438112E0,-3.697261810E-1,-3.819434941E-1,4.728097022E-1
5.543438112E0,-6.965391040E-1,-3.562871516E-1,6.618725061E-1
5.553438112E0,-7.333437204E-1,-5.884159207E-1,6.310238242E-1
5.563438112E0,-6.797403097E-1,-7.625125647E-1,4.150829315E-1
5.573438112E0,-1.365589261E0,-6.371324658E-1,-5.345070735E-2
5.583438112E0,-2.072207689E0,-3.782783151E-1,-8.643743396E-2
5.593438112E0,-2.758056641E0,-9.514226019E-2,-2.626720630E-2
5.603438112E0,-3.272863150E0,1.394299865E-1,7.498370856E-2
5.613438112E0,-3.553250313E0,2.913827300E-1,1.463022232E-1
5.623438112E0,-3.614947796E0,3.958406746E-1,1.342376322E-1
5.633438112E0,-3.184898615E0,2.774855494E-1,-9.850201756E-2
5.643438112E0,-2.751489878E0,1.824959964E-1,-2.029599845E-1
5.653438112E0,-2.310903311E0,1.718058437E-1,-2.428189367E-1
5.663438112E0,-1.955379605E0,1.605048478E-1,-2.203696370E-1
5.673438112E0,-1.735620856E0,5.238169432E-2,-1.354593635E-1
5.683438112E0,-1.663996935E0,-1.343903542E-1,9.468411095E-3
5.693438112E0,-1.846798301E0,-2.286163121E-1,2.938261926E-1
5.703438112E0,-1.951103568E0,-8.139779419E-2,3.103195429E-1
5.713438112E0,-1.951103568E0,-8.139779419E-2,3.103195429E-1
5.723438112E0,-1.948660135E0,5.865833759E-1,1.404990107E-1
5.733438112E0,-1.795943856E0,8.787296414E-1,5.024366826E-2
5.743438112E0,-1.513265967E0,9.857838154E-1,-1.847867295E-2
5.753438112E0,-6.606507897E-1,7.330383062E-1,-6.444628537E-2
5.763438112E0,-2.141082734E-1,4.980078936E-1,-5.360342562E-2
5.773438112E0,1.795943826E-1,2.698497176E-1,-4.367686436E-2
5.783438112E0,4.622722864E-1,9.040805697E-2,-2.458732575E-2
5.793438112E0,6.050620079E-1,-6.734789163E-2,1.145372353E-2
5.803438112E0,5.746715069E-1,-3.121521473E-1,8.185594529E-2
5.813438112E0,5.746715069E-1,-3.121521473E-1,8.185594529E-2
5.823438112E0,4.254676402E-1,-3.825543523E-1,4.367686436E-2
5.833438112E0,3.526219726E-1,-3.665191531E-1,1.725694351E-2
5.843438112E0,2.782491148E-1,-2.907718420E-1,-4.123340361E-3
5.853438112E0,2.066251636E-1,-1.507309973E-1,-2.962696366E-2
5.863438112E0,6.856962293E-2,2.167044431E-1,-9.208793938E-2
5.873438112E0,-3.359758761E-3,3.640756905E-1,-1.120937690E-1
5.883438112E0,-9.483683109E-2,4.555527568E-1,-1.137736514E-1
5.893438112E0,-2.185370475E-1,4.838052690E-1,-9.162978828E-2
5.903438112E0,-3.669773042E-1,4.257730842E-1,-5.192354694E-2
5.913438112E0,-5.160284042E-1,2.968805134E-1,-4.428773187E-3
5.923438112E0,-7.640396953E-1,2.367102914E-2,8.414668590E-2
5.933438112E0,-8.171849847E-1,-4.138612002E-2,1.098030284E-1
5.943438112E0,-7.732026577E-1,-3.772092983E-2,1.067487001E-1
5.953438112E0,-5.839871764E-1,-5.039638374E-3,6.597344577E-2
5.963438112E0,-2.293798923E-1,4.352414981E-2,-1.160643995E-2
5.973438112E0,2.321287990E-1,1.246165112E-1,-1.099557430E-1
5.983438112E0,9.657779336E-1,2.272418737E-1,-2.225076705E-1
5.993438112E0,1.101390004E0,1.771509200E-1,-1.963931769E-1
6.003438112E0,1.089325428E0,8.216137439E-2,-1.313360333E-1
6.013438112E0,9.683741331E-1,-2.840523422E-2,-4.932736978E-2
6.023438112E0,8.011497855E-1,-1.437060535E-1,2.779436857E-2
6.033438112E0,6.371324658E-1,-2.438879460E-1,9.468411654E-2
6.043438112E0,4.236350358E-1,-2.855795026E-1,1.488984078E-1
6.053438112E0,4.059199691E-1,-2.354885489E-1,1.452332139E-1
6.063438112E0,4.689917862E-1,-1.458440721E-1,1.253800988E-1
6.073438112E0,6.032294035E-1,-4.184427112E-2,7.864890248E-2
6.083438112E0,7.718282342E-1,7.528914511E-2,1.237002108E-2
6.093438112E0,9.164505601E-1,1.971567571E-1,-5.650503561E-2
6.103438112E0,1.031598687E0,3.164281845E-1,-1.388191283E-1
6.113438112E0,1.020144939E0,3.049744666E-1,-1.522581577E-1
6.123438112E0,9.697485566E-1,2.640464902E-1,-1.530217379E-1
6.133438112E0,8.756753206E-1,2.157881409E-1,-1.411098689E-1
6.143438112E0,7.554876208E-1,1.673770845E-1,-1.211040318E-1
6.153438112E0,6.340781450E-1,1.186605766E-1,-9.269879758E-2
6.163438112E0,4.663956165E-1,9.621127509E-3,-2.535090782E-2
6.173438112E0,4.583016634E-1,-6.032294407E-2,-1.985311974E-3
6.183438112E0,5.145012736E-1,-1.408044398E-1,8.704829961E-3
6.193438112E0,6.319400668E-1,-2.199114859E-1,4.123340361E-3
6.203438112E0,7.907650471E-1,-3.075706363E-1,-1.038470957E-2
6.213438112E0,9.862419367E-1,-4.094324410E-1,-3.741549700E-2
6.223438112E0,1.330617189E0,-4.828889668E-1,-1.076650023E-1
6.233438112E0,1.422857881E0,-4.802927971E-1,-1.253800988E-1
6.243438112E0,1.447597861E0,-4.737260044E-1,-1.177442744E-1
6.253438112E0,1.403157473E0,-4.471533597E-1,-8.842274547E-2
6.263438112E0,1.287703991E0,-4.030183554E-1,-2.886338346E-2
6.273438112E0,1.109025836E0,-3.442225754E-1,5.146539584E-2
6.283438112E0,6.754642725E-1,-2.061670274E-1,2.015855312E-1
6.293438112E0,4.969388843E-1,-1.438587606E-1,2.324342281E-1
6.303438112E0,3.904955983E-1,-6.795875728E-2,2.197587788E-1
6.313438112E0,3.501785100E-1,4.214970022E-2,1.669189334E-1
6.323438112E0,3.549126983E-1,1.840231568E-1,1.061378345E-1
6.333438112E0,4.037819207E-1,3.107776940E-1,7.742717117E-2
6.343438112E0,5.896376967E-1,2.718350291E-1,1.348485053E-1
6.353438112E0,6.733261943E-1,1.644754708E-1,1.559233516E-1
6.363438112E0,7.078400850E-1,7.651086897E-2,1.276708394E-1
6.373438112E0,6.800457239E-1,4.505131021E-2,6.154467165E-2
6.383438112E0,5.925393105E-1,4.734205827E-2,-1.985312067E-2
6.393438112E0,4.685336351E-1,6.276640296E-2,-1.122464910E-1
6.403438112E0,1.576032341E-1,1.828014255E-1,-2.680171132E-1
6.413438112E0,2.535090782E-2,2.616030276E-1,-3.147483170E-1
6.423438112E0,-4.031710699E-2,3.045163155E-1,-3.465133011E-1
6.433438112E0,-2.092213556E-2,3.170390725E-1,-3.808744848E-1
6.443438112E0,7.651086897E-2,3.233004212E-1,-4.158465266E-1
6.453438112E0,5.277875662E-1,3.530801237E-1,-4.230241776E-1
6.463438112E0,8.536841869E-1,3.468187451E-1,-4.144720733E-1
6.473438112E0,1.159727693E0,3.277291954E-1,-3.949243724E-1
6.483438112E0,1.362076759E0,2.689334154E-1,-3.559817076E-1
6.493438112E0,1.420872569E0,1.585195363E-1,-3.130684495E-1
6.503438112E0,1.342987299E0,2.977968007E-2,-2.725986242E-1
6.513438112E0,8.892670870E-1,-1.802052408E-1,-7.437284291E-2
6.523438112E0,5.453499556E-1,-4.796819389E-1,2.947424725E-2
6.533438112E0,1.858557463E-1,-7.049384713E-1,1.350012124E-1
6.543438112E0,-1.316414624E-1,-8.181012869E-1,2.225076705E-1
6.553438112E0,-3.787364662E-1,-8.451320529E-1,2.574796975E-1
6.563438112E0,-5.386304259E-1,-7.757988572E-1,2.478585690E-1
6.573438112E0,-5.280929804E-1,-4.784601927E-1,1.408044398E-1
6.583438112E0,-3.643811047E-1,-3.051272035E-1,6.459899992E-2
6.593438112E0,-1.327104717E-1,-1.218676195E-1,-1.756237634E-2
6.603438112E0,1.281289905E-1,5.849034712E-2,-9.697485715E-2
6.613438112E0,3.758348525E-1,2.099849284E-1,-1.624901593E-1
6.623438112E0,5.719226003E-1,3.205515444E-1,-2.020436823E-1
6.633438112E0,7.531968355E-1,3.680463135E-1,-1.800525337E-1
6.643438112E0,7.759515643E-1,3.378084898E-1,-1.409571618E-1
6.653438112E0,7.693848014E-1,2.860376537E-1,-1.018617824E-1
6.663438112E0,7.396050692E-1,2.266310006E-1,-6.215553731E-2
6.673438112E0,6.860016584E-1,1.715004146E-1,-2.199114859E-2
6.683438112E0,6.067419052E-1,1.247692257E-1,1.160643995E-2
6.693438112E0,4.378376603E-1,1.542434692E-1,5.085453019E-2
6.703438112E0,4.135557711E-1,2.021963894E-1,4.978551716E-2
6.713438112E0,4.353941977E-1,2.393064648E-1,3.970624134E-2
6.723438112E0,4.885394871E-1,2.539672256E-1,1.435533352E-2
6.733438112E0,5.416847467E-1,2.467895597E-1,-1.023199316E-2
6.743438112E0,5.632177591E-1,2.324342281E-1,-4.123340361E-3
6.753438112E0,4.784601927E-1,1.802052557E-2,1.156062484E-1
6.763438112E0,4.784601927E-1,1.802052557E-2,1.156062484E-1
6.773438112E0,1.159116775E-1,-5.209153295E-1,3.236058652E-1
6.783438112E0,-2.348776907E-1,-7.875580192E-1,4.575380683E-1
6.793438112E0,-6.148358583E-1,-8.640688658E-1,5.986479521E-1
6.803438112E0,-8.199338913E-1,-7.134906054E-1,7.130324841E-1
6.813438112E0,-3.110831380E-1,-3.040581644E-1,5.218316317E-1
6.823438112E0,-1.695151068E-2,-3.361285925E-1,1.881465018E-1
6.833438112E0,-5.635231733E-2,-4.726569951E-1,-3.481931984E-2
6.843438112E0,-5.314527750E-1,-5.261076689E-1,-1.198823079E-1
6.853438112E0,-1.362382174E0,-3.277291954E-1,-1.076650023E-1
6.863438112E0,-2.250427485E0,-1.832595654E-2,-7.910704613E-2
6.873438112E0,-3.289814711E0,5.467243791E-1,-5.925392732E-2
6.883438112E0,-3.367241859E0,7.073819637E-1,-6.337726861E-2
6.893438112E0,-3.192839861E0,7.116580009E-1,-7.651086897E-2
6.903438112E0,-2.821433783E0,5.067127347E-1,-9.437867999E-2
6.913438112E0,-2.332436323E0,1.296561509E-1,-9.361509979E-2
6.923438112E0,-1.831832170E0,-3.121521473E-1,-4.092797264E-2
6.933438112E0,-1.121090412E0,-8.025242090E-1,1.941024363E-1
6.943438112E0,-9.384417534E-1,-6.922630668E-1,3.095559776E-1
6.953438112E0,-8.153523803E-1,-4.538728893E-1,3.726277947E-1
6.963438112E0,-7.116580009E-1,-1.766927689E-1,3.642283976E-1
6.973438112E0,-6.148358583E-1,9.300423414E-2,3.005456924E-1
6.983438112E0,-5.381723046E-1,3.207042515E-1,2.003637999E-1
6.993438112E0,-4.361577928E-1,5.349652171E-1,3.711006418E-2
7.003438112E0,-3.909537494E-1,4.795292318E-1,-2.596177394E-3
7.013438112E0,-3.543018401E-1,3.301726580E-1,-4.123340361E-3
7.023438112E0,-3.355177343E-1,1.169806942E-1,2.321287990E-2
7.033438112E0,-3.373503387E-1,-9.147707373E-2,6.704246253E-2
7.043438112E0,-3.512475193E-1,-2.559525371E-1,1.145372316E-1
7.053438112E0,-3.597996235E-1,-3.570507467E-1,1.545489132E-1
7.063438112E0,-3.617849350E-1,-3.234531581E-1,1.295034289E-1
7.073438112E0,-3.541491330E-1,-1.783726513E-1,4.749477282E-2
7.083438112E0,-3.356704414E-1,-1.232420653E-1,1.359175146E-2
7.093438112E0,-2.784018219E-1,-5.436700583E-2,-4.276056588E-2
7.103438112E0,-2.519819140E-2,5.131268129E-2,-1.731802970E-1
7.113438112E0,1.169806942E-1,4.856378585E-2,-2.101376504E-1
7.123438112E0,2.299907655E-1,-2.015855350E-2,-2.196060568E-1
7.133438112E0,2.793181241E-1,-1.699732542E-1,-1.992947906E-1
7.143438112E0,2.461786866E-1,-3.428481221E-1,-1.519527286E-1
7.153438112E0,1.243110746E-1,-4.656320214E-1,-8.384125680E-2
7.163438112E0,-2.561052442E-1,-4.980078936E-1,5.604688451E-2
7.163438112E0,-2.561052442E-1,-4.980078936E-1,5.604688451E-2
7.183438112E0,-5.245805383E-1,-2.961169183E-1,1.197295859E-1
7.193438112E0,-5.609270334E-1,-1.094975919E-1,9.010262042E-2
7.203438112E0,-5.328271985E-1,8.735372871E-2,3.329215571E-2
7.213438112E0,-4.483750761E-1,2.645046413E-1,-3.252857551E-2
7.223438112E0,-2.118175179E-1,4.717406929E-1,-1.414152980E-1
7.233438112E0,-1.191187203E-1,4.961752892E-1,-1.627955884E-1
7.243438112E0,-4.886921868E-2,4.754058719E-1,-1.660026312E-1
7.253438112E0,1.206458826E-2,4.130976200E-1,-1.627955884E-1
7.263438112E0,5.803219974E-2,3.262020350E-1,-1.583668143E-1
7.273438112E0,8.842274547E-2,2.267837226E-1,-1.476766765E-1
7.283438112E0,1.475239545E-1,1.223257631E-1,-1.131627858E-1
7.293438112E0,2.232712507E-1,9.468411654E-2,-1.036943719E-1
7.303438112E0,3.361285925E-1,8.323039114E-2,-1.131627858E-1
7.313438112E0,4.618141353E-1,1.069014147E-1,-1.415680200E-1
7.323438112E0,5.710062981E-1,1.592831165E-1,-1.780672222E-1
7.333438112E0,6.551529765E-1,2.044871449E-1,-2.084577680E-1
7.343438112E0,7.374670506E-1,1.985312104E-1,-2.374738604E-1
7.353438112E0,7.531968355E-1,1.667662114E-1,-2.405281961E-1
7.363438112E0,7.596109509E-1,1.227839142E-1,-2.399173230E-1
7.373438112E0,7.606799603E-1,8.307767659E-2,-2.359467000E-1
7.383438112E0,7.461718917E-1,4.963280261E-2,-2.134974003E-1
7.393438112E0,7.165449262E-1,2.565634064E-2,-1.724167168E-1
7.403438112E0,6.440047026E-1,1.130100712E-2,-1.021672115E-1
7.413438112E0,6.117815375E-1,1.893682219E-2,-7.803803682E-2
7.423438112E0,5.859724879E-1,3.741549700E-2,-5.940664560E-2
7.433438112E0,5.763513446E-1,4.596760869E-2,-4.382958263E-2
7.443438112E0,5.783366561E-1,2.962696366E-2,-3.084869497E-2
7.453438112E0,5.884159207E-1,-3.665191587E-3,-2.336559631E-2
7.463438112E0,6.252205968E-1,-1.320996135E-1,-7.330383174E-3
7.473438112E0,6.626361012E-1,-2.309070677E-1,2.901609987E-3
7.483438112E0,7.043276429E-1,-3.362813294E-1,1.252273750E-2
7.493438112E0,7.310529947E-1,-4.268420935E-1,2.703078650E-2
7.503438112E0,7.394523621E-1,-4.796819389E-1,4.749477282E-2
7.513438112E0,7.472409010E-1,-4.999932051E-1,6.948592514E-2
7.523438112E0,8.150469661E-1,-4.526511431E-1,8.857546002E-2
7.533438112E0,8.391761184E-1,-3.857614100E-1,8.933904022E-2
7.543438112E0,8.164213896E-1,-2.687807083E-1,7.391469181E-2
7.553438112E0,7.165449262E-1,-8.735372871E-2,4.902193695E-2
7.563438112E0,5.482515693E-1,1.551597714E-1,3.359758854E-2
7.573438112E0,3.526219726E-1,4.204280078E-1,3.909537569E-2
7.583438112E0,-5.070181563E-2,7.828238010E-1,1.076650023E-1
7.593438112E0,-2.616030276E-1,8.087855577E-1,1.631010175E-1
7.603438112E0,-4.524984360E-1,7.315111160E-1,2.067778856E-1
7.613438112E0,-5.971207619E-1,5.798638463E-1,2.110539377E-1
7.623438112E0,-6.658431292E-1,4.002694488E-1,1.742493063E-1
7.633438112E0,-6.485861540E-1,2.623666227E-1,1.055269688E-1
7.643438112E0,-6.485861540E-1,2.623666227E-1,1.055269688E-1
7.653438112E0,4.596760869E-2,2.014328092E-1,-2.263255715E-1
7.663438112E0,4.424191415E-1,2.425135076E-1,-3.433062732E-1
7.673438112E0,8.187121153E-1,2.611449063E-1,-4.543310404E-1
7.683438112E0,1.137278318E0,2.651155293E-1,-5.494732857E-1
7.693438112E0,1.137278318E0,2.651155293E-1,-5.494732857E-1
7.703438112E0,1.662011623E0,1.840231568E-1,-6.617197990E-1
7.713438112E0,1.699885249E0,1.247692257E-1,-6.276640296E-1
7.723438112E0,1.651015997E0,3.390302137E-2,-5.529857874E-1
7.733438112E0,1.505019307E0,-7.284568250E-2,-4.317290187E-1
7.743438112E0,1.281595230E0,-1.762346178E-1,-2.852740586E-1
7.753438112E0,7.087563872E-1,-2.860376537E-1,-5.955936015E-2
7.763438112E0,4.451680481E-1,-3.283400834E-1,1.893682219E-2
7.773438112E0,2.412917763E-1,-3.685044646E-1,4.657847434E-2
7.783438112E0,1.015563458E-1,-3.394883573E-1,4.657847434E-2
7.793438112E0,1.740965992E-2,-2.616030276E-1,3.573561832E-2
7.803438112E0,-1.893682219E-2,-1.875356287E-1,8.704829961E-3
7.813438112E0,5.299255997E-2,-4.657847434E-2,-9.239336848E-2
7.823438112E0,1.412625909E-1,-3.817907767E-3,-1.504255682E-1
7.833438112E0,1.941024363E-1,1.588249579E-2,-1.769981980E-1
7.843438112E0,3.213151097E-1,8.689557761E-2,-2.167044431E-1
7.853438112E0,3.289509416E-1,1.302670091E-1,-2.076941878E-1
7.863438112E0,2.976440787E-1,1.675297916E-1,-1.740965992E-1
7.873438112E0,2.408336252E-1,1.954768747E-1,-1.203404516E-1
7.883438112E0,1.750128865E-1,2.174680233E-1,-5.925392732E-2
7.893438112E0,1.215621829E-1,2.342668176E-1,-5.192354787E-3
7.903438112E0,9.773843735E-2,2.359467000E-1,7.467827946E-2
7.913438112E0,1.218676195E-1,2.131919712E-1,1.064432710E-1
7.923438112E0,1.614211351E-1,1.965458989E-1,1.430951804E-1
7.933438112E0,2.043344229E-1,1.860084683E-1,1.786780804E-1
7.943438112E0,2.463314086E-1,1.646281779E-1,2.112066597E-1
7.953438112E0,2.819143236E-1,1.365283877E-1,2.397646159E-1
7.963438112E0,3.402519524E-1,8.933904022E-2,2.779437006E-1
7.973438112E0,3.579670191E-1,4.276056588E-2,2.831360400E-1
7.983438112E0,3.628539443E-1,-4.062253982E-2,2.915354371E-1
7.993438112E0,3.576616049E-1,-1.701259762E-1,3.112358451E-1
8.003438112E0,3.127630055E-1,-4.308127165E-1,3.463605940E-1
8.013438112E0,1.450804919E-1,-8.374962807E-1,4.004221559E-1
8.023438112E0,-6.806566119E-1,-1.336267710E0,6.821837425E-1
8.033438112E0,-1.013883591E0,-1.171639562E0,8.947648406E-1
8.043438112E0,-1.145677805E0,-9.879218340E-1,8.283332586E-1
8.053438112E0,-1.204626322E0,-9.094256163E-1,5.526803136E-1
8.063438112E0,-1.377653837E0,-8.843801618E-1,2.985603809E-1
8.073438112E0,-1.831984878E0,-6.717990637E-1,1.620320082E-1
8.083438112E0,-3.240181923E0,1.811215430E-1,1.401935667E-1
8.093438112E0,-3.743076801E0,6.229298115E-1,1.504255682E-1
8.103438112E0,-3.937790155E0,1.057713151E0,1.160643995E-1
8.113438112E0,-3.836386442E0,1.332449794E0,2.901609987E-2
8.123438112E0,-3.504686594E0,1.336115003E0,-9.117163718E-2
8.133438112E0,-3.064100027E0,1.113301873E0,-1.927279830E-1
8.143438112E0,-2.305558205E0,3.210096955E-1,-1.715004146E-1
8.153438112E0,-2.123978376E0,-7.956519723E-2,-4.031710699E-2
8.163438112E0,-2.123978376E0,-7.956519723E-2,-4.031710699E-2
8.173438112E0,-2.085952044E0,-5.661193728E-1,2.565633953E-1
8.183438112E0,-2.092671633E0,-6.151412725E-1,3.497203588E-1
8.193438112E0,-2.059073925E0,-5.328271985E-1,3.785837293E-1
8.203438112E0,-1.830915809E0,-7.360926270E-2,2.907718420E-1
8.213438112E0,-1.615585804E0,1.524108797E-1,1.915062517E-1
8.223438112E0,-1.373225093E0,3.116939962E-1,1.059851199E-1
8.233438112E0,-1.150564671E0,3.788891733E-1,5.513058975E-2
8.243438112E0,-9.752463698E-1,3.336851299E-1,2.672535367E-2
8.253438112E0,-8.469646573E-1,2.203696370E-1,2.321287990E-2
8.263438112E0,-6.973026991E-1,3.329215571E-2,5.253441259E-2
8.273438112E0,-6.479753256E-1,-8.552113548E-3,5.940664560E-2
8.283438112E0,-6.015495658E-1,3.207042580E-3,6.673702598E-2
8.293438112E0,-5.392413139E-1,4.260785133E-2,8.643743396E-2
8.303438112E0,-4.526511431E-1,7.223481685E-2,1.264491081E-1
8.313438112E0,-2.292271852E-1,3.207042580E-3,2.579378486E-1
8.323438112E0,-1.070541367E-1,-1.010981947E-1,3.281873465E-1
8.333438112E0,9.926560335E-3,-2.179261744E-1,3.709479272E-1
8.343438112E0,8.521570265E-2,-2.985603809E-1,4.013384581E-1
8.353438112E0,1.046106741E-1,-3.643811047E-1,4.106541574E-1
8.363438112E0,7.574728876E-2,-3.903428912E-1,3.622430861E-1
8.373438112E0,-9.575312585E-2,-3.135266006E-1,1.948660165E-1
8.383438112E0,-2.112066597E-1,-1.902845204E-1,1.403462887E-1
8.393438112E0,-3.251330256E-1,-3.894266114E-2,8.475755155E-2
8.403438112E0,-4.111123085E-1,1.139263660E-1,1.527163107E-2
8.413438112E0,-4.612032473E-1,2.489275932E-1,-5.253441259E-2
8.423438112E0,-4.605923891E-1,3.382666409E-1,-1.168279797E-1
8.433438112E0,-3.848451078E-1,3.332269788E-1,-2.012801021E-1
8.443438112E0,-3.376557529E-1,2.695443034E-1,-1.873829067E-1
8.453438112E0,-2.977968156E-1,1.768454909E-1,-1.424843222E-1
8.463438112E0,-2.724458873E-1,5.451972410E-2,-7.895433158E-2
8.473438112E0,-2.756529450E-1,-7.254024595E-2,-3.787364438E-2
8.483438112E0,-3.292563558E-1,-1.744020283E-1,-6.856962293E-2
8.493438112E0,-3.292563558E-1,-1.744020283E-1,-6.856962293E-2
8.503438112E0,-4.660901725E-1,2.280054539E-1,1.927279830E-1
8.513438112E0,-5.224425197E-1,3.975205719E-1,3.426954150E-1
8.523438112E0,-5.847507715E-1,4.482223690E-1,4.303545654E-1
8.533438112E0,-6.377432942E-1,3.935499489E-1,4.560109079E-1
8.543438112E0,-6.630942225E-1,3.335324228E-1,4.350887835E-1
8.553438112E0,-6.968445182E-1,3.388774991E-1,3.155119121E-1
8.563438112E0,-6.988298297E-1,3.921754956E-1,2.715296149E-1
8.573438112E0,-6.818783283E-1,4.050036669E-1,2.189951837E-1
8.583438112E0,-6.470590234E-1,3.420845270E-1,1.598939747E-1
8.593438112E0,-5.795583725E-1,2.357939780E-1,9.071348608E-2
8.603438112E0,-4.856378734E-1,1.944078654E-1,2.458732575E-2
8.613438112E0,-2.788599730E-1,-5.681046844E-2,-7.757988572E-2
8.623438112E0,-1.716531366E-1,-1.766927689E-1,-1.035416573E-1
8.633438112E0,-8.643743396E-2,-1.980730593E-1,-1.246165112E-1
8.643438112E0,-1.389718428E-2,-1.832595766E-1,-1.256855279E-1
8.653438112E0,5.054909736E-2,-1.237002090E-1,-9.987647086E-2
8.663438112E0,1.110247597E-1,-4.291328415E-2,-6.627888232E-2
8.673438112E0,2.525927722E-1,4.153883830E-2,3.894266114E-2
8.683438112E0,3.294090927E-1,2.474004216E-2,1.085812971E-1
8.693438112E0,3.791945875E-1,-5.329799280E-2,2.089159191E-1
8.703438112E0,4.048509300E-1,-1.931861341E-1,3.031418920E-1
8.713438112E0,4.680754840E-1,-3.426954150E-1,3.558290005E-1
8.723438112E0,5.775730610E-1,-4.276056588E-1,3.885102868E-1
8.733438112E0,8.726209998E-1,-4.523457289E-1,3.662137091E-1
8.743438112E0,1.046717644E0,-4.555527568E-1,3.110831380E-1
8.753438112E0,1.211803913E0,-3.814853430E-1,2.535090744E-1
8.763438112E0,1.366200089E0,-2.574796975E-1,2.052507252E-1
8.773438112E0,1.505019307E0,-1.241583601E-1,1.785253733E-1
8.783438112E0,1.598939776E0,-1.634064503E-2,1.734857261E-1
8.793438112E0,1.607950091E0,-3.466660157E-2,2.313652188E-1
8.803438112E0,1.554804802E0,-5.406157300E-2,3.087923825E-1
8.813438112E0,1.486082435E0,4.963280261E-2,4.210388660E-1
8.823438112E0,1.393841743E0,2.883284092E-1,5.508477092E-1
8.833438112E0,1.266781807E0,6.412557960E-1,6.681338549E-1
8.843438112E0,1.105513334E0,1.061072946E0,7.660250068E-1
8.853438112E0,8.013024926E-1,1.468672752E0,7.707592249E-1
8.863438112E0,6.136141419E-1,1.157284260E0,6.056728959E-1
8.873438112E0,2.990185320E-1,4.639521539E-1,3.842342496E-1
8.883438112E0,-8.109235764E-2,-2.845104933E-1,2.015855312E-1
8.893438112E0,-4.396702647E-1,-7.214318514E-1,5.650503561E-2
8.903438112E0,-7.367035151E-1,-8.213083148E-1,-1.350012124E-1
8.913438112E0,-7.367035151E-1,-8.213083148E-1,-1.350012124E-1
8.913438112E0,-9.728028774E-1,-2.264782935E-1,-7.002043128E-1
8.933438112E0,-1.305419087E0,3.932445049E-1,-1.213178396E0
8.943438112E0,-1.572825313E0,6.704245806E-1,-1.338253021E0
8.953438112E0,-1.837177277E0,9.805914164E-1,-1.389412999E0
8.963438112E0,-2.170709610E0,1.504408360E0,-1.284955025E0
8.973438112E0,-2.193158865E0,1.561524272E0,-1.165836334E0
8.983438112E0,-2.150398493E0,1.486693263E0,-1.050230026E0
8.993438112E0,-2.003332615E0,1.337794900E0,-9.407324791E-1
9.003438112E0,-1.737300754E0,1.165225506E0,-8.888089061E-1
9.013438112E0,-1.394299865E0,9.251554012E-1,-9.266825914E-1
9.023438112E0,-6.224716902E-1,1.719585657E-1,-1.095739484E0
9.033438112E0,-2.845104933E-1,-1.837177277E-1,-1.113912821E0
9.043438112E0,-4.657847434E-2,-4.512766898E-1,-1.053437114E0
9.053438112E0,7.849618047E-2,-6.264423132E-1,-9.404270649E-1
9.063438112E0,1.099557430E-1,-6.774495840E-1,-8.106181622E-1
9.073438112E0,7.437284291E-2,-5.960517526E-1,-6.872233748E-1
9.083438112E0,-1.145372316E-1,-3.240640163E-1,-5.068654418E-1
9.093438112E0,-2.028072625E-1,-2.304489166E-1,-4.453207552E-1
9.103438112E0,-2.400700450E-1,-1.464549452E-1,-3.992004395E-1
9.113438112E0,-2.237294018E-1,-7.971791178E-2,-3.691153228E-1
9.123438112E0,-1.719585657E-1,-6.169738993E-2,-3.497203588E-1
9.133438112E0,-9.208793938E-2,-8.246681094E-2,-3.300199509E-1
9.143438112E0,1.339322031E-1,-8.155050874E-2,-2.687807083E-1
9.153438112E0,2.377792895E-1,-7.269296050E-2,-2.412917763E-1
9.163438112E0,3.106249869E-1,-7.299839705E-2,-2.183843255E-1
9.173438112E0,3.434589803E-1,-5.619960278E-2,-1.994474977E-1
9.183438112E0,3.350595832E-1,-5.192354787E-3,-1.879937798E-1
9.193438112E0,2.838996351E-1,8.048149943E-2,-1.846340150E-1
9.203438112E0,1.087340117E-1,2.733621895E-1,-1.769981980E-1
9.213438112E0,3.222314268E-2,3.480404615E-1,-1.629483104E-1
9.223438112E0,-1.282817032E-2,3.949243724E-1,-1.437060535E-1
9.233438112E0,-2.015855350E-2,4.042400718E-1,-1.211040318E-1
9.243438112E0,1.298088674E-2,3.822489381E-1,-9.407325089E-2
9.253438112E0,8.796459436E-2,3.310889602E-1,-6.001751125E-2
9.263438112E0,3.297145069E-1,1.843285859E-1,3.237585723E-2
9.273438112E0,4.523457289E-1,1.102611795E-1,8.323039114E-2
9.283438112E0,5.548183322E-1,2.718350291E-2,1.328631938E-1
9.293438112E0,6.377432942E-1,-6.185010448E-2,1.763873398E-1
9.303438112E0,6.942483783E-1,-1.496619880E-1,2.075414658E-1
9.313438112E0,7.150177956E-1,-2.377792895E-1,2.241875380E-1
9.323438112E0,6.412557960E-1,-3.310889602E-1,2.125810981E-1
9.333438112E0,5.586362481E-1,-2.861903608E-1,1.919644028E-1
9.343438112E0,4.457789063E-1,-1.992947906E-1,1.670716405E-1
9.353438112E0,3.072652221E-1,-8.857546002E-2,1.307251602E-1
9.363438112E0,1.511891484E-1,3.375030309E-2,7.666359097E-2
9.373438112E0,-1.043052375E-1,2.477058619E-1,-5.268712714E-2
9.383438112E0,-1.585195363E-1,2.935207486E-1,-1.070541367E-1
9.393438112E0,-1.875356287E-1,3.095559776E-1,-1.705841124E-1
9.403438112E0,-1.791362315E-1,2.855795026E-1,-2.229658216E-1
9.413438112E0,-9.834930301E-2,1.918116808E-1,-2.477058619E-1
9.423438112E0,-4.825835302E-2,1.203404516E-1,-2.214386463E-1
9.433438112E0,-6.719517522E-3,5.253441259E-2,-1.899790913E-1
9.443438112E0,1.924225502E-2,2.397646010E-2,-1.583668143E-1
9.453438112E0,3.008511290E-2,1.740965992E-2,-1.295034289E-1
9.463438112E0,2.428189293E-2,1.374446787E-3,-1.075122803E-1
9.473438112E0,-8.399397135E-3,-1.053742543E-1,-9.544769675E-2
9.483438112E0,-2.657263726E-2,-1.660026312E-1,-1.322523206E-1
9.493438112E0,-5.054909736E-2,-1.815796942E-1,-2.200642079E-1
9.503438112E0,-8.857546002E-2,-1.660026312E-1,-3.217732608E-1
9.513438112E0,-1.539380401E-1,-1.490511149E-1,-3.874412775E-1
9.523438112E0,-2.406809032E-1,-1.768454909E-1,-4.072943926E-1
9.533438112E0,-3.909537494E-1,-2.458732575E-1,-3.888157308E-1
9.543438112E0,-4.289801121E-1,-2.307543457E-1,-3.877467215E-1
9.553438112E0,-4.554000497E-1,-1.857030392E-1,-3.962988257E-1
9.563438112E0,-4.860960245E-1,-1.346957833E-1,-4.040873647E-1
9.573438112E0,-5.236642361E-1,-8.613199741E-2,-4.043927789E-1
9.583438112E0,-5.682573915E-1,-5.161811411E-2,-3.946189582E-1
9.593438112E0,-6.731734872E-1,-4.337143153E-2,-3.611740768E-1
9.603438112E0,-7.466300726E-1,-4.963280261E-2,-3.536909819E-1
9.613438112E0,-8.408560157E-1,-6.612616032E-2,-3.515529633E-1
9.623438112E0,-9.450085163E-1,-1.127046347E-1,-3.559817076E-1
9.633438112E0,-1.025948167E0,-1.637118906E-1,-3.657555580E-1
9.643438112E0,-1.046412110E0,-1.391245574E-1,-3.875939846E-1
9.653438112E0,-9.999864101E-1,-8.567385375E-2,-3.860668242E-1
9.663438112E0,-9.382890463E-1,-1.267545391E-2,-3.706424832E-1
9.673438112E0,-8.799513578E-1,5.757404864E-2,-3.419318199E-1
9.683438112E0,-8.451320529E-1,1.017090604E-1,-3.094032407E-1
9.693438112E0,-8.423831463E-1,9.972374886E-2,-2.820670307E-1
9.703438112E0,-8.730791807E-1,-4.871650413E-2,-2.435825169E-1
9.713438112E0,-8.530732989E-1,-1.282816976E-1,-2.385428846E-1
9.723438112E0,-8.014551997E-1,-2.050980031E-1,-2.451096773E-1
9.733438112E0,-7.330383062E-1,-2.933680415E-1,-2.631302178E-1
9.743438112E0,-6.528622508E-1,-3.790418804E-1,-2.753475010E-1
9.753438112E0,-5.574145317E-1,-4.489859641E-1,-2.791654170E-1
9.763438112E0,-3.509420753E-1,-4.969388843E-1,-3.028364480E-1
9.773438112E0,-2.719877362E-1,-4.784601927E-1,-3.271183372E-1
9.783438112E0,-2.258674204E-1,-4.260784984E-1,-3.491095006E-1
9.793438112E0,-2.306016237E-1,-3.825543523E-1,-3.627012372E-1
9.803438112E0,-2.791654170E-1,-3.764457107E-1,-3.672827184E-1
9.813438112E0,-3.524692357E-1,-4.108068645E-1,-3.587306142E-1
9.823438112E0,-5.218316317E-1,-3.706424832E-1,-2.641992271E-1
9.833438112E0,-6.087272167E-1,-2.267837226E-1,-1.553124934E-1
9.843438112E0,-6.513350606E-1,-8.796459436E-2,-6.551529467E-2
9.853438112E0,-6.146831512E-1,-2.367102914E-2,-4.718934000E-2
9.863438112E0,-4.949535728E-1,-6.719517708E-2,-9.254608303E-2
9.873438112E0,-3.289509416E-1,-1.589776874E-1,-1.453859210E-1
9.883438112E0,1.069014147E-2,-3.889684379E-1,-1.667662114E-1
9.893438112E0,1.632537395E-1,-5.093088746E-1,-1.501201391E-1
9.903438112E0,3.123048544E-1,-5.911648273E-1,-1.420261711E-1
9.913438112E0,4.370740950E-1,-5.958990455E-1,-1.504255682E-1
9.923438112E0,4.868595898E-1,-5.560401082E-1,-1.637118906E-1
9.933438112E0,4.274529517E-1,-4.987714589E-1,-1.502728462E-1
9.943438112E0,1.652390510E-1,-1.866193265E-1,-4.749477282E-2
9.953438112E0,3.543018550E-2,2.748893574E-2,9.162978269E-3
9.963438112E0,-5.360342562E-2,1.800525337E-1,5.009094998E-2
9.973438112E0,-1.018617824E-1,2.420553565E-1,7.147123665E-2
9.983438112E0,-1.166752651E-1,2.544253767E-1,8.689557761E-2
9.993438112E0,-1.143845171E-1,2.299907655E-1,9.712757170E-2
1.000343811E1,-9.330966324E-2,1.056796908E-1,9.804387391E-2
1.001343811E1,-8.323039114E-2,4.169155285E-2,1.070541367E-1
