"Time (s)","Linear Acceleration x (m/s^2)","Linear Acceleration y (m/s^2)","Linear Acceleration z (m/s^2)"
3.916337800E-2,2.972222865E-1,4.625970840E0,-1.101536751E0
5.626247300E-2,4.991584420E-1,5.027207375E0,-1.118028641E0
7.336818700E-2,6.409859061E-1,5.293829441E0,-1.172279358E0
9.047183400E-2,6.873738766E-1,5.569680691E0,-1.038772583E0
1.075772740E-1,6.180847883E-1,5.816740036E0,-5.677604675E-1
1.246804340E-1,5.244207382E-1,6.054403782E0,-8.999538422E-2
1.418251070E-1,4.257909656E-1,6.786439896E0,4.978909492E-1
1.589003030E-1,3.999969661E-1,7.433461666E0,5.057382584E-1
1.760062910E-1,4.305749536E-1,7.804851055E0,3.159427643E-2
1.931099600E-1,4.802630544E-1,8.249420166E0,-3.506441116E-1
2.102126430E-1,7.648710608E-1,8.986005783E0,5.659117699E-1
2.273232990E-1,7.994955778E-1,9.876152039E0,2.919140816E0
2.444248020E-1,1.306799650E0,1.045547771E1,5.102232456E0
2.615281140E-1,1.411759973E0,1.043992710E1,5.646077156E0
2.786339290E-1,8.571032286E-1,9.521449089E0,3.965535641E0
2.957375760E-1,-3.295139670E-1,6.777047634E0,-1.136307716E-1
3.128422830E-1,-1.713816404E0,2.942561150E0,-5.127006531E0
3.299462060E-1,-2.298619032E0,-2.953686714E-1,-7.818055153E0
3.470480030E-1,-1.269070864E0,-1.740506649E0,-7.486701965E0
3.641427310E-1,-8.663944900E-2,-3.012614489E0,-5.999727726E0
3.812477620E-1,6.273446083E-1,-4.131817818E0,-4.149869442E0
3.983512370E-1,1.139695883E0,-4.728627682E0,-4.109900475E0
4.154572240E-1,5.281146765E-1,-5.944808483E0,-6.703675747E0
4.325501520E-1,-2.674231529E-1,-7.077060223E0,-8.879614830E0
4.496798720E-1,-3.876152337E-1,-7.240022659E0,-9.967089653E0
4.667817910E-1,-2.997068167E-1,-6.841779709E0,-9.975872040E0
4.838871790E-1,-5.940828472E-2,-5.977262497E0,-8.746570587E0
5.009898310E-1,3.356107771E-1,-4.938138485E0,-6.924340725E0
5.180954220E-1,6.820944548E-1,-4.655048847E0,-5.482902527E0
5.351990290E-1,6.563227773E-1,-4.835404396E0,-4.511924267E0
5.523047630E-1,4.337880909E-1,-5.708359718E0,-4.667700768E0
5.694073120E-1,3.445148468E-1,-6.627823830E0,-5.494733810E0
5.865134730E-1,3.248473704E-1,-7.394089699E0,-6.747184753E0
6.121619030E-1,5.015490651E-1,-8.092350006E0,-8.282066345E0
6.292626500E-1,5.504060984E-1,-8.013360977E0,-8.484402657E0
6.463677020E-1,5.013957620E-1,-7.667670727E0,-8.548624039E0
6.634721020E-1,7.374374866E-1,-6.742472649E0,-8.112859726E0
6.805765750E-1,1.175531626E0,-4.570078373E0,-8.675003052E0
6.976813520E-1,9.279780388E-1,-2.206309319E0,-1.032766724E1
7.147856830E-1,-3.896343708E-2,6.028351784E-1,-9.295139313E0
7.318897580E-1,5.293405652E-1,4.749543190E0,-3.733229637E-1
7.489943320E-1,1.987562656E0,7.913799286E0,4.130714893E0
7.660986220E-1,3.956773758E0,9.057327271E0,5.888666153E0
7.832030520E-1,3.462747574E0,9.659540176E0,7.586337090E0
8.003077480E-1,1.354127407E0,8.238546371E0,3.701170921E0
8.174119860E-1,5.254033804E-1,8.174356461E0,-4.950056076E-1
8.345167950E-1,-5.675375462E-2,7.800255299E0,-4.741487980E0
8.516212480E-1,-5.912016630E-1,7.361378670E0,-5.952371120E0
8.687158820E-1,-1.069210768E-1,7.737698555E0,-2.817750454E0
8.858297020E-1,1.416928887E0,8.216543198E0,1.262144089E0
9.029340330E-1,2.336810589E0,8.003382683E0,3.433418274E0
9.200387500E-1,1.923661709E0,6.924236298E0,2.383100510E0
9.371403820E-1,9.233339429E-1,5.870009899E0,-2.152347565E-1
9.542501040E-1,1.978920698E-1,4.936880589E0,-2.465632915E0
9.713522980E-1,-2.835507393E-1,4.232123375E0,-3.229238510E0
9.884565060E-1,-2.187520266E-1,4.013457775E0,-2.348888397E0
1.005560753E0,3.442563415E-1,4.073799133E0,-9.674816132E-1
1.022665491E0,1.043164968E0,4.325646877E0,5.863103867E-1
1.039769609E0,1.426783323E0,4.500108242E0,8.427114487E-1
1.056874028E0,1.323820114E0,4.110148907E0,-6.242074966E-1
1.073978308E0,9.848621488E-1,3.743417740E0,-2.518158913E0
1.091082923E0,7.034246922E-1,3.904038429E0,-3.634268761E0
1.108187517E0,5.157582760E-1,4.301743507E0,-3.622816086E0
1.125285427E0,8.011514544E-1,4.929375648E0,-1.897579193E0
1.142396543E0,1.582610369E0,6.253429413E0,6.472759247E-1
1.159500537E0,1.830298185E0,7.587675095E0,2.593965530E0
1.176604958E0,1.203065395E0,8.043082237E0,2.564842224E0
1.193709777E0,5.117857456E-1,7.873607635E0,1.596974373E0
1.210814077E0,1.636064649E-1,7.410507202E0,-9.007453918E-3
1.227918243E0,2.097105384E-1,6.902735710E0,-1.116927624E0
1.245022917E0,4.198271930E-1,6.971455097E0,-8.184738159E-1
1.262127280E0,5.930423141E-1,7.422514915E0,3.341188431E-1
1.279232199E0,4.951338768E-1,7.854170322E0,1.451148033E0
1.296336477E0,2.993544042E-1,8.279798508E0,2.068685532E0
1.313440899E0,5.678213835E-1,8.678300858E0,2.800757408E0
1.330545250E0,9.384803176E-1,8.500608444E0,2.836389065E0
1.347649346E0,1.350728273E0,8.579080582E0,2.140055656E0
1.364753910E0,1.626233935E0,9.019850731E0,1.326188087E0
1.381858137E0,1.889804602E0,9.825248718E0,1.453223705E0
1.398963170E0,2.004844904E0,9.849494934E0,2.038716793E0
1.416067498E0,1.972387791E0,8.442968369E0,2.210784912E0
1.433171687E0,1.781686902E0,5.858364582E0,9.033603668E-1
1.450276016E0,8.538950682E-1,2.707817554E0,-2.725077152E0
1.467380448E0,-1.748165488E-1,-3.627777100E-3,-6.737425804E0
1.484485105E0,-5.983775258E-1,-1.886087894E0,-8.417922974E0
1.501589922E0,-2.337855101E-1,-3.135051966E0,-7.226166725E0
1.518693712E0,5.427920222E-1,-4.082502365E0,-4.671295166E0
1.535798693E0,1.005741835E0,-5.095656872E0,-3.953555584E0
1.552902749E0,1.011155605E0,-6.581368923E0,-5.144429684E0
1.570007403E0,8.193114400E-1,-7.759065628E0,-7.310848236E0
1.587111815E0,4.145479202E-1,-8.995132446E0,-9.904884338E0
1.604213642E0,5.050099492E-1,-9.265650749E0,-1.138080215E1
1.621321105E0,7.277097106E-1,-8.189598083E0,-1.103463364E1
1.638427317E0,9.917579889E-1,-6.515492439E0,-8.969663620E0
1.655529592E0,1.125101805E0,-5.071175575E0,-6.275676727E0
1.672633740E0,9.926601052E-1,-4.499252319E0,-4.146947861E0
1.689738394E0,7.749338746E-1,-4.895009995E0,-3.354716301E0
1.706842906E0,7.183693647E-1,-5.754860401E0,-3.900837660E0
1.723947380E0,8.639929295E-1,-6.772101402E0,-4.967583656E0
1.741051618E0,9.079767466E-1,-7.758722305E0,-6.305893898E0
1.758155998E0,8.660756946E-1,-8.484539986E0,-7.317482471E0
1.775260195E0,8.386168480E-1,-8.909584045E0,-7.414871216E0
1.792364627E0,9.005498886E-1,-8.968255997E0,-6.856855392E0
1.809469222E0,1.186535239E0,-8.764546394E0,-6.240945816E0
1.826573989E0,1.394929886E0,-8.051980972E0,-5.878878593E0
1.843678157E0,1.254183054E0,-7.112634182E0,-6.788054466E0
1.860782802E0,1.266496539E0,-5.319822311E0,-9.372230530E0
1.877888129E0,8.681609631E-1,-3.102841854E0,-1.210210800E1
1.894991409E0,-2.485484481E-1,-1.803060532E0,-1.129534435E1
1.912095975E0,1.410734296E0,1.368815422E0,-3.510018349E0
1.929200680E0,9.955428243E-1,4.849600792E0,-1.501927376E-1
1.946301939E0,1.045813084E0,5.560096264E0,1.902192116E0
1.963411791E0,1.696118474E0,7.085678577E0,5.280904770E0
1.980513975E0,1.007110953E0,8.324964523E0,3.197092056E0
1.997618457E0,6.780861616E-1,8.610069275E0,-5.513548851E-1
2.014722991E0,3.162134886E-1,8.366617203E0,-3.059003353E0
2.031827454E0,1.177371740E-1,8.020106316E0,-2.440123558E0
2.048931344E0,8.042165637E-1,8.330410957E0,1.623831749E0
2.066035695E0,1.364407420E0,7.960536480E0,4.035438538E0
2.083140147E0,1.243890762E0,8.043437004E0,3.737115860E0
2.100244580E0,7.575672269E-1,8.401409149E0,2.576861382E0
2.177212620E0,2.096275091E-1,7.289038658E0,2.679651260E0
2.194316859E0,5.920959711E-1,7.055182457E0,2.039554596E0
2.211424972E0,8.138859868E-1,6.464406013E0,9.255685806E-1
2.228537542E0,5.601491928E-1,5.521246433E0,7.941913605E-2
2.245643275E0,-1.396838427E-1,4.989838600E0,-1.812257767E-1
2.262745805E0,-2.970228195E-1,5.181564808E0,3.110628128E-1
2.279850969E0,-2.076907158E-1,5.371241093E0,4.020709991E-1
2.296955044E0,2.611892223E-1,5.605073929E0,5.064888000E-1
2.314047076E0,5.060819983E-1,5.456425190E0,-1.660003662E-1
2.331161222E0,5.836025476E-1,5.116817474E0,-1.057459354E0
2.348257109E0,8.930196166E-1,5.234348297E0,-1.450643063E0
2.365361438E0,1.177660823E0,5.760934353E0,-8.478956223E-1
2.382463357E0,1.305558920E0,6.400925159E0,2.730598450E-1
2.399568481E0,1.756848454E0,7.399127007E0,1.403589249E0
2.416679128E0,2.027079105E0,7.911413670E0,1.709007263E0
2.433794027E0,1.829935670E0,7.726158619E0,1.244123459E0
2.450896251E0,1.792320132E0,7.506179333E0,9.354219437E-1
2.467985271E0,1.814152956E0,7.439260006E0,1.204868317E0
2.485092683E0,1.788491249E0,7.625760078E0,1.890185356E0
2.502196403E0,1.783808112E0,8.046066284E0,2.938146591E0
2.519301200E0,1.691315413E0,8.317024231E0,3.727645874E0
2.536405673E0,1.444756269E0,8.036859512E0,3.770520210E0
2.553513625E0,1.509097815E0,7.726796150E0,2.576814651E0
2.570626082E0,1.916664124E0,7.306367397E0,1.837646484E0
2.587731602E0,2.136775255E0,7.053730965E0,1.315999985E0
2.604835158E0,1.825021744E0,6.149115562E0,5.140695572E-1
2.621940781E0,1.610733986E0,4.046874046E0,-5.788393021E-1
2.639044591E0,1.378476381E0,1.882558346E0,-2.223935604E0
2.656149562E0,8.516392708E-1,-1.438379288E-1,-4.209459305E0
2.673253089E0,-3.217071295E-2,-1.595265388E0,-6.051927090E0
2.690357804E0,-1.055206299E0,-2.501997232E0,-7.320199013E0
2.707462287E0,-9.760749340E-1,-3.139227390E0,-7.066362381E0
2.724567015E0,-1.897661686E-1,-3.793339729E0,-6.391297340E0
2.741670784E0,3.433576524E-1,-4.733823299E0,-6.123388290E0
2.758775410E0,4.267253578E-1,-5.621850967E0,-6.782291412E0
2.775877612E0,3.897126615E-1,-6.681962967E0,-8.178339005E0
2.790830617E0,6.352864504E-1,-7.424636364E0,-1.071685505E1
2.807940103E0,7.582865953E-1,-7.435410976E0,-1.164624500E1
2.825044285E0,8.003028035E-1,-6.793250561E0,-1.201550865E1
2.842148784E0,6.741380095E-1,-6.003936291E0,-1.088602638E1
2.859253011E0,4.963438511E-1,-4.924452305E0,-8.012186050E0
2.876357936E0,3.554703593E-1,-4.015913963E0,-4.956934929E0
2.893461915E0,3.948491812E-1,-3.952905178E0,-3.517330170E0
2.910566129E0,5.577311516E-1,-4.699308395E0,-3.914858818E0
2.927670707E0,6.682773829E-1,-5.743792534E0,-5.217598438E0
2.944775389E0,6.890095472E-1,-6.662803650E0,-6.529165268E0
2.961879692E0,9.358368516E-1,-7.171510696E0,-7.504813671E0
2.978984475E0,1.219663382E0,-7.043218136E0,-7.724939823E0
2.996088967E0,1.363873243E0,-6.007063866E0,-7.198979855E0
3.013192149E0,1.569773078E0,-4.410353184E0,-6.671396732E0
3.030299205E0,1.525426745E0,-2.739027023E0,-7.587888718E0
3.047401667E0,1.278842688E0,-1.106898785E0,-9.209572792E0
3.064506242E0,3.756829500E-1,2.761158943E-1,-9.835301399E0
3.081610882E0,1.036195755E0,1.638807297E0,-5.246835232E0
3.098715363E0,1.573980689E0,5.936932087E0,-1.049299240E-1
3.115819394E0,1.442961931E0,6.304316044E0,4.450340271E-1
3.132924588E0,1.603721142E0,6.632192135E0,4.064413071E0
3.150028882E0,1.033008575E0,5.827792168E0,3.557898998E0
3.167133156E0,7.170245647E-1,6.012277603E0,1.097266197E0
3.184237247E0,8.415418267E-1,7.083734512E0,-1.273085117E0
3.201341852E0,7.202636003E-1,6.618064880E0,-2.968026161E0
3.218446558E0,6.951290965E-1,6.263997555E0,-2.471760273E0
3.235550796E0,1.129776001E0,6.094321251E0,-1.328464985E0
3.252654944E0,1.675072670E0,5.849919796E0,2.738323212E-1
3.269759781E0,1.653705120E0,5.900995255E0,1.597636223E0
3.286864391E0,8.797227144E-1,5.620746613E0,1.185555458E0
3.303969163E0,1.837906241E-1,4.973991871E0,-7.468795776E-2
3.321073224E0,-4.063773751E-1,4.385709763E0,-7.911939621E-1
3.338177258E0,-7.884489298E-1,4.371402740E0,-2.643871307E-1
3.355282020E0,-6.549548507E-1,4.870233536E0,1.948537827E-1
3.372386331E0,-8.437836170E-2,5.024009705E0,1.332454681E-1
3.389490818E0,4.868274927E-1,4.762902260E0,-3.119783401E-1
3.406595539E0,1.295937300E0,4.269290924E0,-2.844810486E-1
3.423700012E0,1.892528057E0,4.310419083E0,5.336761475E-3
3.440804590E0,1.883634329E0,4.491733551E0,5.991239548E-1
3.457908453E0,1.350454330E0,5.096444607E0,1.175905228E0
3.475012894E0,6.179029346E-1,5.967349529E0,1.326588631E0
3.492117504E0,4.521112442E-1,6.633056164E0,1.734125137E0
3.509222200E0,7.293022275E-1,7.045899391E0,1.829046249E0
3.526325980E0,9.783900380E-1,7.158574104E0,2.017887115E0
3.543430672E0,1.100190043E0,7.530427456E0,2.481109619E0
3.560535434E0,1.120339870E0,7.695322037E0,2.842895508E0
3.577639788E0,9.455093741E-1,7.517496586E0,2.536826134E0
3.594743982E0,5.746722817E-1,7.294461727E0,1.927716255E0
3.611848647E0,3.842223883E-1,7.177526474E0,1.498344421E0
3.628952982E0,5.927876234E-1,7.107306957E0,1.026758194E0
3.646057449E0,7.994490862E-1,7.252028465E0,1.234740257E0
3.663161673E0,1.064015388E0,7.711729050E0,1.959948540E0
3.680273011E0,1.372345328E0,7.853636742E0,2.837235451E0
3.697370870E0,1.429720640E0,7.854231358E0,3.708827972E0
3.714475730E0,1.290696740E0,7.513259411E0,3.752596855E0
3.731579592E0,1.563326955E0,7.189508915E0,3.047772408E0
3.748684415E0,1.535701036E0,6.799537182E0,2.029155731E0
3.765788755E0,1.199966073E0,6.515165806E0,1.349747658E0
3.782893085E0,8.593533039E-1,6.513153553E0,8.179740906E-1
3.799997908E0,6.090396643E-2,5.658389091E0,2.370567322E-1
3.817101795E0,-3.590826988E-1,3.775247574E0,-1.002997398E0
3.834206461E0,-1.703599691E-1,1.564622879E0,-2.737098217E0
3.851310918E0,-1.868653297E-2,-2.899899483E-1,-4.215836048E0
3.868415146E0,-9.131669998E-3,-1.213488579E0,-4.764175415E0
3.885520035E0,-5.365264416E-2,-2.226568460E0,-4.761616707E0
3.902614111E0,1.554277837E-1,-3.724025488E0,-5.180119514E0
3.919728563E0,3.482288122E-1,-5.418277264E0,-6.346623421E0
3.936832750E0,4.940757155E-1,-6.475136757E0,-8.163986206E0
3.953937314E0,7.029718757E-1,-6.963418007E0,-1.021460438E1
3.971040825E0,5.731736422E-1,-7.477702618E0,-1.174703026E1
3.988147815E0,2.925872505E-1,-7.412427902E0,-1.303354454E1
4.005251015E0,1.847250462E-1,-7.284510612E0,-1.310540009E1
4.022354212E0,5.103717446E-1,-6.730273247E0,-1.167550087E1
4.039461257E0,5.102259517E-1,-6.367944717E0,-9.221432686E0
4.056564081E0,4.971530735E-1,-6.018510342E0,-6.352729797E0
4.073668295E0,5.980646610E-1,-5.455986977E0,-4.231735706E0
4.090772909E0,7.441908121E-1,-5.235929012E0,-3.566013336E0
4.107867224E0,6.705875993E-1,-5.563449383E0,-4.067204952E0
4.124981883E0,4.297157526E-1,-6.336422443E0,-5.252042770E0
4.142086240E0,4.605101049E-1,-6.901634216E0,-6.371927261E0
4.159190935E0,4.467675984E-1,-7.035510063E0,-7.422836304E0
4.176295210E0,5.530534983E-1,-6.841276646E0,-7.621498108E0
4.193399657E0,8.564457893E-1,-5.849905968E0,-7.089664459E0
4.210505238E0,1.183067322E0,-4.253973961E0,-6.972395897E0
4.227607873E0,1.317835331E0,-2.517775536E0,-7.378413200E0
4.244713252E0,8.235329390E-1,-8.681163788E-1,-8.455581665E0
4.261817586E0,4.160655737E-1,1.135296822E-1,-8.179149628E0
4.278922277E0,1.494274259E0,2.424573421E0,-4.481792450E0
4.366581133E0,2.044802427E0,6.332475662E0,2.610635757E0
4.383685697E0,1.749450922E0,8.018968582E0,1.469273567E0
4.400790292E0,5.818652511E-1,7.354175568E0,7.461147308E-1
4.417909595E0,-2.967555523E-1,6.720531940E0,1.292571068E0
4.434996509E0,2.469536066E-1,6.931572437E0,2.411256790E0
4.452103455E0,1.106795788E0,7.949708939E0,4.102344513E0
4.469208608E0,1.344115257E0,8.135630608E0,5.085157394E0
4.486312144E0,8.753027916E-1,7.673631191E0,4.153771400E0
4.503416851E0,1.068034410E0,6.709832191E0,2.598626137E0
4.520521405E0,1.423666477E0,5.653388023E0,1.995316505E0
4.537641197E0,6.812628508E-1,5.057854652E0,2.759135246E0
4.554742139E0,-2.302157879E-1,4.841621399E0,2.782152176E0
4.571847039E0,1.622899175E-1,4.956451893E0,2.237892151E0
4.588950900E0,9.964718223E-1,4.855564117E0,1.579267502E0
4.606055423E0,1.471745253E0,4.414202690E0,2.276258469E-1
4.623175073E0,1.529973269E0,3.735783100E0,-9.104366302E-1
4.640264897E0,1.272449970E0,3.717337132E0,-1.200016975E0
4.657368718E0,4.805875421E-1,4.367776871E0,-4.076776505E-1
4.674473211E0,9.518325329E-2,5.288800240E0,1.023047447E0
4.691574388E0,3.892456591E-1,6.194418907E0,2.654695511E0
4.708685675E0,9.742939472E-1,6.436433792E0,2.756607056E0
4.725787176E0,1.080422282E0,5.852222443E0,1.780666351E0
4.742890958E0,1.110645056E0,4.989434719E0,3.832540512E-1
4.759995125E0,1.259487867E0,4.439780235E0,-3.675079346E-1
4.777100431E0,1.218992949E0,4.162758350E0,-5.985374451E-1
4.794204568E0,8.648919463E-1,4.553543568E0,2.948789597E-1
4.811308938E0,7.831279635E-1,4.823339462E0,1.275732994E0
4.828398355E0,8.973822594E-1,5.039497375E0,1.698757172E0
4.845505644E0,1.055376172E0,5.183629036E0,1.979949951E0
4.862610372E0,1.251317859E0,5.307204247E0,2.417004585E0
4.879715352E0,1.931899905E0,5.675948620E0,3.163777351E0
4.896818930E0,2.402692080E0,6.339229107E0,3.605229378E0
4.913932578E0,2.709555864E0,7.126117706E0,4.578280449E0
4.931040061E0,2.733870983E0,7.591166019E0,5.792710304E0
4.948144645E0,2.615344048E0,8.143431664E0,6.690877914E0
4.965248649E0,2.412579536E0,8.235782623E0,6.494636536E0
4.982353163E0,2.279978037E0,7.816354752E0,5.394027710E0
4.999457777E0,1.853188038E0,6.875595570E0,3.876239777E0
5.016562819E0,6.660935283E-1,5.338979244E0,1.398356438E0
5.033667271E0,-5.967655182E-1,3.759789467E0,-1.414286137E0
5.050770858E0,-6.887416840E-1,3.310031414E0,-3.552555561E0
5.067875340E0,-5.327397585E-2,2.956686497E0,-3.804506302E0
5.084980779E0,2.485780418E-1,2.425425053E0,-3.366896629E0
5.102084682E0,2.904503345E-1,1.270797253E0,-3.198552132E0
5.119188950E0,4.032609463E-1,-6.194872856E-1,-4.144737244E0
5.136293382E0,3.388147354E-1,-3.242664099E0,-5.350112915E0
5.153398872E0,2.572808564E-1,-5.618346214E0,-6.143355370E0
5.170502470E0,5.976319313E-2,-8.070047379E0,-7.777686596E0
5.187607450E0,-2.273541689E-2,-9.514917374E0,-1.075953579E1
5.204698170E0,1.200109124E-1,-9.911054611E0,-1.362684822E1
5.221816639E0,2.619454265E-1,-9.244708061E0,-1.548531914E1
5.238920104E0,2.986293137E-1,-8.358998299E0,-1.485018539E1
5.256024281E0,5.500039458E-1,-7.425750732E0,-1.191575813E1
5.273125875E0,4.842076302E-1,-6.300325394E0,-7.681755066E0
5.290236959E0,3.297137916E-1,-5.652976036E0,-5.049158096E0
5.307334789E0,4.017415643E-1,-5.655385017E0,-3.521867275E0
5.324430391E0,6.782906651E-1,-5.928827763E0,-3.294470787E0
5.341534965E0,1.026298285E0,-6.723128319E0,-4.367594242E0
5.358639660E0,8.329468369E-1,-7.415088177E0,-5.814516068E0
5.375743767E0,6.797443628E-1,-8.054688454E0,-7.267496109E0
5.392848341E0,6.744099855E-1,-7.915515900E0,-7.936738491E0
5.409951176E0,7.679279447E-1,-7.132959366E0,-7.447937012E0
5.433477178E0,8.156931996E-1,-5.629837990E0,-6.772308826E0
5.450577601E0,9.720327854E-1,-4.564945221E0,-6.421638966E0
5.467681792E0,1.186342239E0,-2.859553814E0,-7.224570274E0
5.484786255E0,1.021796465E0,-1.411373138E0,-9.169393539E0
5.501889288E0,9.932196736E-1,-1.953582764E-1,-1.019475555E1
5.518995499E0,1.594380617E0,7.494544983E-2,-5.380483150E0
5.536099076E0,1.609151602E0,2.788701057E0,-3.030223846E0
5.553203396E0,3.101544678E-1,1.095455170E0,-2.581944466E0
5.570307975E0,7.486830950E-1,5.900774002E-1,-9.376649857E-1
5.587412951E0,1.318373084E0,1.375435829E0,5.489501953E-1
5.604517149E0,2.346348763E0,3.380692959E0,1.073187351E0
5.621621835E0,2.896694660E0,5.447627068E0,1.806470394E0
5.638725819E0,2.464175224E0,6.575988770E0,3.200737000E0
5.655830305E0,1.210884452E0,6.655746460E0,3.082268715E0
5.672934717E0,2.547059655E-1,5.954668045E0,1.747692108E0
5.690039230E0,6.248927116E-1,6.564553261E0,2.800165176E0
5.707144135E0,1.409476757E0,8.080967903E0,4.657238007E0
5.724248745E0,1.511856556E0,8.773632050E0,6.084622383E0
5.741352729E0,9.684728384E-1,8.746430397E0,6.070395470E0
5.758457155E0,5.534536242E-1,7.893032074E0,5.866909027E0
5.775561632E0,1.801747978E-1,7.218281746E0,5.045103073E0
5.792665892E0,8.356446028E-2,6.603116989E0,2.871077538E0
5.809770567E0,6.048004627E-1,6.512502670E0,9.856348038E-1
5.826874927E0,1.276615143E0,5.766984940E0,8.694839478E-2
5.843979538E0,1.777956009E0,5.180450439E0,5.240430832E-1
5.861083734E0,1.637751222E0,5.399216652E0,1.067288399E0
5.878188339E0,9.239363670E-1,5.716457844E0,8.365545273E-1
5.895293406E0,1.555009484E-1,6.016583443E0,3.492012024E-1
5.912397716E0,-2.697004080E-1,6.588638306E0,1.040928841E0
5.929501588E0,7.981544733E-2,7.418083668E0,3.006176949E0
5.946606060E0,6.650479436E-1,7.850200653E0,4.702703476E0
5.963710619E0,9.684537649E-1,7.644675255E0,5.364554405E0
5.980814903E0,1.009033203E0,6.565391541E0,3.872925758E0
5.997919528E0,7.308522463E-1,5.581164360E0,1.742794991E0
6.015024157E0,6.546434164E-1,5.642087936E0,8.622903824E-1
6.032128539E0,9.489513636E-1,6.026780128E0,1.634777069E0
6.049232990E0,1.063710690E0,6.426868439E0,2.633716583E0
6.066337772E0,1.224413633E0,6.467177868E0,3.161842346E0
6.083441808E0,1.445960999E0,6.321520805E0,2.866659164E0
6.100546259E0,1.321530581E0,5.834671974E0,1.565272331E0
6.117650681E0,1.165159106E0,5.432203293E0,5.087795258E-1
6.134755128E0,1.089013934E0,5.212478161E0,1.736545563E-1
6.151859488E0,9.413677454E-1,5.263871670E0,5.626668930E-1
6.168964240E0,7.645475268E-1,5.549418926E0,1.217140198E0
6.186068697E0,9.320553541E-1,5.763233662E0,2.058869362E0
6.203173536E0,1.233807683E0,5.927863121E0,2.607922554E0
6.220277449E0,1.488489866E0,6.155053616E0,2.882063866E0
6.237382032E0,1.366098881E0,5.987710953E0,2.148315907E0
6.254486617E0,1.157264709E0,5.586577892E0,1.491852283E0
6.271590794E0,9.328919053E-1,4.800168037E0,1.065421581E0
6.288695226E0,7.901046872E-1,4.699092865E0,1.096797466E0
6.305800008E0,4.407044053E-1,4.590353489E0,1.425260544E0
6.322904272E0,-1.720000207E-1,3.552288532E0,6.075115204E-1
6.340008774E0,-2.334153354E-1,1.529654980E0,-2.177977562E0
6.357113659E0,-3.881853819E-2,-3.585972786E-1,-4.622551441E0
6.374217572E0,-3.830565810E-1,-1.562178612E0,-5.821894646E0
6.391322665E0,-7.117067575E-1,-2.982520580E0,-6.041534424E0
6.408426857E0,-1.122904420E-1,-4.755172729E0,-5.650328159E0
6.425532041E0,5.305290222E-1,-6.373230934E0,-5.896480560E0
6.442634714E0,6.852357984E-1,-7.831741333E0,-6.717512608E0
6.459740421E0,5.318510532E-1,-9.084333420E0,-8.551795959E0
6.476844904E0,4.676728249E-1,-9.848655701E0,-1.069919395E1
6.493949356E0,5.510320663E-1,-9.481061935E0,-1.235785007E1
6.511053391E0,4.354501367E-1,-9.770725250E0,-1.305433464E1
6.528157843E0,1.040406704E0,-8.753926277E0,-1.171533394E1
6.545262223E0,1.322313786E0,-7.702773094E0,-7.965985775E0
6.562366752E0,1.491528630E0,-6.545907021E0,-4.408565044E0
6.579471092E0,1.444507122E0,-6.161000252E0,-2.370613575E0
6.596576169E0,1.373938441E0,-6.362808704E0,-2.118312836E0
6.613668852E0,9.524364471E-1,-7.007650375E0,-3.460195065E0
6.630784976E0,6.433640122E-1,-7.920699120E0,-5.100002289E0
6.647889184E0,5.580849051E-1,-8.581596375E0,-6.277246952E0
6.664998391E0,7.584773302E-1,-9.060001373E0,-6.975079536E0
6.682098053E0,9.089691639E-1,-9.063265800E0,-7.087208271E0
6.699202418E0,8.792462945E-1,-8.116130829E0,-6.968622684E0
6.716306864E0,9.126803875E-1,-6.785808086E0,-7.415557384E0
6.733411429E0,8.940912485E-1,-4.878011703E0,-8.142646790E0
6.750516292E0,4.572451413E-1,-2.431384563E0,-9.186960220E0
6.767620764E0,1.730114818E-1,3.275089264E-1,-8.324855804E0
6.784725227E0,1.233220577E0,3.411026478E0,-2.696925163E0
6.801828514E0,2.132356644E0,7.543932438E0,2.223140717E0
6.818934420E0,4.541584253E-1,6.010640621E0,5.994067192E-1
6.836038114E0,3.955504000E-1,3.487051964E0,-5.419588089E-1
6.853142689E0,9.563865066E-1,3.548133373E0,3.931741714E-1
6.870246942E0,1.578048825E0,5.107949734E0,4.366307259E-1
6.887352289E0,1.592720032E0,7.320398331E0,2.152490616E-2
6.904456554E0,1.069538593E0,8.086826324E0,-3.280463219E-1
6.921560924E0,-6.394106150E-2,7.705499172E0,1.170674324E0
7.051992466E0,1.153239012E-1,4.271822453E0,1.491217613E0
7.137516159E0,1.228917480E0,3.912353039E0,-2.128021240E0
7.154619392E0,1.443530679E0,4.626163006E0,-3.003549576E-1
7.171724362E0,1.411098599E0,6.080578327E0,1.934045792E0
7.188829017E0,1.573676586E0,7.587856293E0,3.630570412E0
7.205933337E0,1.408180594E0,7.881889820E0,3.630871773E0
7.223037962E0,1.012586355E0,7.147636414E0,2.352072716E0
7.240142617E0,7.079628706E-1,6.453700542E0,1.429512978E0
7.257246723E0,4.909865856E-1,6.224884033E0,1.152325630E0
7.274351003E0,3.034228981E-1,6.300902367E0,1.891844749E0
7.291452444E0,4.413780570E-1,6.422001839E0,2.547646523E0
7.308548583E0,6.367630363E-1,6.155884266E0,2.737071037E0
7.325653046E0,6.604545116E-1,5.661796093E0,1.872940063E0
7.342757234E0,6.818875670E-1,5.086983681E0,8.630723953E-1
7.359861676E0,7.190622091E-1,4.852263451E0,4.058928490E-1
7.376965994E0,4.998069406E-1,4.662381649E0,3.402457237E-1
7.394084933E0,6.258841157E-1,4.909022331E0,6.035218239E-1
7.411186994E0,8.319224715E-1,5.150706768E0,9.795513153E-1
7.428291212E0,9.892923832E-1,5.371032238E0,1.381120682E0
7.445396650E0,1.139960051E0,5.543691635E0,1.874319077E0
7.462499954E0,1.150594592E0,5.751366138E0,2.317161083E0
7.479605707E0,9.049267769E-1,5.908282757E0,2.681056499E0
7.496709335E0,7.020037770E-1,5.983010769E0,2.974343300E0
7.513813614E0,4.629743099E-1,5.736506939E0,2.593642712E0
7.530918106E0,5.236991644E-1,4.847961903E0,1.633250713E0
7.548023199E0,3.889040351E-1,3.329832077E0,4.032192230E-1
7.565127060E0,-2.094439268E-1,2.015456200E0,-1.548974991E0
7.582230517E0,-7.166506052E-1,7.770562172E-1,-4.168842793E0
7.599337003E0,-6.179769039E-1,-2.981357574E-1,-5.684711933E0
7.616441404E0,-5.712056160E-2,-1.410534382E0,-5.031496525E0
7.633545134E0,2.940688133E-1,-2.661471128E0,-3.608435631E0
7.650650114E0,4.812225699E-1,-4.315413475E0,-3.520463467E0
7.667754678E0,9.260492921E-1,-6.145889759E0,-4.787906647E0
7.684858489E0,1.117402196E0,-7.389443398E0,-7.051774502E0
7.701962788E0,8.640462756E-1,-8.711936951E0,-9.784347534E0
7.719067159E0,6.988114119E-1,-1.013816452E1,-1.193128395E1
7.736172068E0,1.008278131E0,-1.032467365E1,-1.305990219E1
7.753277009E0,1.345756650E0,-9.749363899E0,-1.206372261E1
7.770380505E0,1.782303095E0,-8.236784935E0,-9.533199310E0
7.787482790E0,1.665766001E0,-7.775413036E0,-6.340195179E0
7.804576398E0,1.307337403E0,-7.607093811E0,-4.843790054E0
7.821681572E0,1.094268084E0,-7.642741680E0,-4.234614372E0
7.838788424E0,1.092643142E0,-7.925038338E0,-4.369413853E0
7.855892235E0,1.059585452E0,-8.359101295E0,-4.817194939E0
7.872996707E0,1.024002671E0,-8.681292534E0,-5.235449791E0
7.890101454E0,9.243550301E-1,-8.888204575E0,-5.620574474E0
7.907205967E0,8.624569774E-1,-8.948961258E0,-5.847757339E0
7.924310399E0,8.211361170E-1,-8.460685730E0,-5.787583828E0
7.941415197E0,6.775890589E-1,-7.113935471E0,-6.266985416E0
7.958519221E0,4.511879086E-1,-5.111496925E0,-7.098986149E0
7.975623521E0,1.177164316E-1,-2.454930305E0,-8.280898094E0
7.992727882E0,-3.254902363E-1,4.620981216E-1,-9.467975616E0
8.009832679E0,-1.710413098E-1,1.441991806E0,-7.066932201E0
8.026927121E0,2.385837793E0,3.610613823E0,2.442784309E-1
8.044041318E0,1.884934425E0,6.223988056E0,1.714474678E0
8.061145994E0,1.612396240E0,3.976658344E0,2.775335789E0
8.078251045E0,1.148069382E0,4.289381504E0,4.485619545E0
8.095339597E0,1.362205982E0,6.491502285E0,4.173583031E0
8.112459349E0,9.566642642E-1,8.949167252E0,1.758974075E0
8.129563761E0,2.621016204E-1,8.973279953E0,5.446367264E-1
8.146668538E0,-2.902000546E-1,8.054793358E0,1.606535912E0
8.163773032E0,3.474000096E-2,7.862515926E0,3.604787827E0
8.180877259E0,7.892683148E-1,9.049161911E0,5.556080818E0
8.197981853E0,1.351977825E0,9.932466507E0,6.546982765E0
8.215086335E0,1.366808653E0,9.379547119E0,5.573513031E0
8.232191103E0,1.192200541E0,7.575989723E0,4.201636314E0
8.249295219E0,1.035034657E0,6.293744564E0,4.099682808E0
8.266399742E0,8.480305672E-1,5.731235027E0,4.888566971E0
8.283504226E0,6.511915922E-1,5.653688908E0,5.345643997E0
8.300608911E0,4.893032014E-1,5.322451591E0,4.243871689E0
8.317713016E0,2.859550416E-1,4.627166271E0,2.240034103E0
8.334818089E0,5.704371929E-1,4.145719051E0,1.039103508E0
8.351922398E0,1.262748957E0,4.155279160E0,8.483800888E-1
8.369027279E0,1.592809916E0,4.570117474E0,1.664006233E0
8.386145208E0,1.461408496E0,5.315943718E0,2.764885902E0
8.403235653E0,1.322935462E0,5.851774216E0,3.159179688E0
8.420340136E0,1.025632739E0,5.433045387E0,2.305404663E0
8.437444739E0,7.119847536E-1,4.406886101E0,1.142475128E0
8.454546170E0,4.352585077E-1,3.614949942E0,9.104633331E-2
8.471656462E0,5.123552084E-1,4.427256107E0,-7.182731628E-1
8.488758370E0,5.632826090E-1,2.669794321E0,4.725551605E-2
8.505862812E0,1.295448542E-1,2.451694250E0,2.443828583E-1
8.522967041E0,6.526741982E-1,3.351296902E0,-7.857322693E-1
8.540071522E0,1.111143708E0,3.564847231E0,-4.113016129E-1
8.557175902E0,1.117052555E0,3.649728060E0,5.687236786E-2
8.574280426E0,7.621574402E-1,3.567425251E0,-4.579038620E-1
8.591384725E0,8.203191757E-1,3.412719727E0,-5.521011353E-1
8.608489350E0,4.082520008E-1,3.571062803E0,-1.797949314E0
8.625594158E0,4.770922959E-1,3.111884356E0,-1.399058342E0
8.642698529E0,7.459431887E-1,1.804070473E0,-1.102832794E0
8.659802503E0,7.156974673E-1,1.322098732E0,-1.546609879E0
8.676907310E0,5.214072466E-1,1.536256313E0,-2.420192242E0
8.694011763E0,3.248326182E-1,1.342972279E0,-3.294279099E0
8.711116652E0,5.202537179E-1,-1.817319393E-1,-4.336118221E0
8.728220575E0,6.845256090E-1,-1.022241354E0,-5.138401031E0
8.745325097E0,8.163261414E-1,-9.909195900E-1,-5.498407841E0
8.762430303E0,6.284863949E-1,-9.863488674E-1,-5.438510895E0
8.779534469E0,5.310693979E-1,-1.497927666E0,-5.867029190E0
8.796638739E0,6.069945693E-1,-1.841484308E0,-6.164120674E0
8.813743038E0,4.492896199E-1,-1.749639034E0,-5.414438248E0
8.830838111E0,6.506652832E-1,-1.257101536E0,-4.419267654E0
8.847952145E0,8.271155357E-1,-3.419528008E-1,-5.132810116E0
8.865056363E0,8.549940586E-1,4.512295723E-1,-6.543615341E0
8.882161008E0,1.670753479E0,5.022859573E-1,-5.162422180E0
8.899265654E0,1.909562469E0,6.835355759E-1,-1.252360344E0
8.916370644E0,1.835878015E0,9.831948280E-1,-2.359590530E-1
8.933474354E0,1.464677572E0,8.023862839E-1,5.580863953E-1
8.950578877E0,1.303783178E0,8.982405663E-1,8.783693314E-1
8.967683562E0,1.846875668E0,2.017949581E0,1.240081787E-1
8.984788239E0,2.568906784E0,3.744198322E0,-8.472690582E-1
9.001892355E0,2.072777271E0,4.464512348E0,-1.462320328E0
9.018996816E0,9.270690680E-1,4.315849304E0,-1.969210148E0
9.036101473E0,8.745598793E-2,3.400428295E0,-1.201503754E0
9.053206770E0,-2.764084339E-1,2.388807774E0,1.517696381E-1
9.070310509E0,-4.805129766E-1,1.910557508E0,1.246801376E0
9.087415336E0,-3.931032419E-1,1.925165653E0,1.137314796E0
9.104519445E0,-4.733456373E-1,2.048694134E0,9.427909851E-1
9.121624180E0,-6.923260689E-1,1.856340408E0,7.369022369E-1
9.138728195E0,-6.058619022E-1,1.626983166E0,8.775987625E-1
9.155832808E0,-3.767476082E-1,1.482887506E0,4.260654449E-1
9.172937332E0,-1.849452257E-1,1.528778076E0,2.641353607E-1
9.190042049E0,8.499622345E-3,1.600466013E0,1.549386978E-1
9.207146409E0,2.529511452E-1,1.623699427E0,-3.150548935E-1
9.224250708E0,3.181239367E-1,1.676769257E0,-9.406938553E-1
9.241355242E0,3.761647940E-1,1.572961569E0,-1.392176628E0
9.258459957E0,4.860552549E-1,1.349339485E0,-1.516709805E0
9.275564185E0,5.138483047E-1,1.333576202E0,-1.693781853E0
9.292668506E0,5.465025902E-1,1.596291542E0,-1.968024254E0
9.309773527E0,5.458167791E-1,1.965287924E0,-1.953350067E0
9.446620068E0,1.358240843E-1,1.751861334E0,-1.316405296E0
9.463733921E0,1.107089520E-1,1.914828539E0,-1.558588982E0
9.480819126E0,3.396544456E-1,2.415304422E0,-1.854362965E0
9.497921960E0,2.137808800E-1,2.818873167E0,-1.527712345E0
9.515026045E0,4.444779158E-1,2.252751350E0,-1.697149277E0
9.532130762E0,6.100280285E-1,2.084843874E0,-1.707571507E0
9.549234838E0,5.168473721E-1,2.306610346E0,-1.077006340E0
9.566342209E0,4.007927179E-1,2.248357773E0,-7.707176208E-1
9.583456132E0,4.272470474E-1,2.056136131E0,-9.151906967E-1
9.600560584E0,5.564625263E-1,2.053375483E0,-1.222579002E0
9.617665402E0,5.630525351E-1,2.156925440E0,-1.534874916E0
9.634769326E0,5.611828566E-1,2.270118237E0,-1.231938362E0
9.651874408E0,5.473299026E-1,2.037190199E0,-4.492082596E-1
9.668978646E0,3.962538242E-1,1.691565990E0,-1.092967987E-1
9.686095437E0,1.564807892E-1,1.641068220E0,-5.806856155E-1
9.703187987E0,5.442500114E-2,1.827648878E0,-1.107930183E0
9.720291616E0,1.157815456E-1,2.000957012E0,-1.009681702E0
9.737397491E0,2.486979961E-2,2.048206568E0,-9.485616684E-1
9.754497966E0,-1.021878719E-1,2.045458794E0,-5.348749161E-1
9.771604859E0,-6.385457516E-2,1.978655457E0,-1.534662247E-1
9.788697765E0,1.096143723E-1,1.818904757E0,-3.496217728E-1
9.805802694E0,1.174496412E-1,1.885719538E0,-8.590393066E-1
9.822906618E0,3.813177347E-1,1.889650226E0,-4.211912155E-1
9.840011376E0,4.193598628E-1,1.647549629E0,4.421482086E-1
9.857115867E0,1.424628496E-1,2.243073225E0,-1.359691620E-1
9.874235223E0,1.056679487E-1,2.117864132E0,-7.658128738E-1
9.891337263E0,3.150649071E-1,1.975598693E0,-1.136051178E0
9.908444533E0,4.236705899E-1,2.323325872E0,-7.054738998E-1
9.925545770E0,3.293632269E-1,2.143044472E0,-1.979732513E-2
9.942650223E0,2.498180270E-1,1.724740386E0,3.551120758E-1
9.959754217E0,2.066573501E-1,1.752562642E0,1.803684235E-2
9.976854294E0,1.185873151E-1,2.014636993E0,-8.169517517E-1
9.993949297E0,2.618706226E-2,2.174265385E0,-1.227108955E0
1.001105693E1,4.010570049E-2,2.051802158E0,-1.303014755E0
