"Time (s)","Linear Acceleration x (m/s^2)","Linear Acceleration y (m/s^2)","Linear Acceleration z (m/s^2)"
4.593299800E-2,6.760349870E-2,9.850506783E-1,-2.758002281E0
6.303474400E-2,1.035102904E-1,1.056768894E0,-2.653414488E0
8.013843300E-2,1.075161994E-1,1.125199795E0,-2.589698315E0
9.724271000E-2,9.324935079E-2,1.158974648E0,-2.490947723E0
1.143469470E-1,7.853955030E-2,1.262533665E0,-2.453876495E0
1.314513060E-1,7.254180312E-2,1.328496456E0,-2.360424519E0
1.485552480E-1,4.441729188E-2,1.395006180E0,-2.339116096E0
1.656596560E-1,6.371423602E-2,1.491186142E0,-2.313641310E0
1.827637100E-1,1.105357707E-1,1.511609554E0,-2.347433090E0
1.998681710E-1,1.295882761E-1,1.541791439E0,-2.356650352E0
2.169719800E-1,1.258016229E-1,1.543037415E0,-2.412553310E0
2.340762380E-1,1.274195611E-1,1.493417263E0,-2.465333462E0
2.511803610E-1,1.590093970E-1,1.383500099E0,-2.552081823E0
2.682848640E-1,1.766857505E-1,1.238726616E0,-2.626714706E0
2.853888140E-1,1.807735264E-1,1.058063984E0,-2.675154686E0
3.024929700E-1,2.845432460E-1,8.529109955E-1,-2.692840099E0
3.195972160E-1,3.117424548E-1,6.714692116E-1,-2.730790615E0
3.366914330E-1,2.684227824E-1,4.391226768E-1,-2.883528709E0
3.538029940E-1,2.761422992E-1,1.680135727E-1,-3.088847160E0
3.709071090E-1,2.656866312E-1,-1.212291718E-1,-3.409447670E0
3.880138580E-1,2.384886146E-1,-4.249033928E-1,-3.654268980E0
4.051183990E-1,2.836375237E-1,-6.931996346E-1,-3.791762590E0
4.222224840E-1,3.719343543E-1,-9.962067604E-1,-3.752197027E0
4.393264650E-1,4.485900104E-1,-1.304146290E0,-3.742052317E0
4.564308340E-1,4.470679462E-1,-1.630953789E0,-3.811415911E0
4.735355190E-1,4.046257138E-1,-2.001095772E0,-4.058057785E0
4.906390940E-1,3.854179680E-1,-2.383597851E0,-4.522239685E0
5.077405740E-1,3.500409424E-1,-2.767747879E0,-5.081797123E0
5.248472920E-1,3.355372250E-1,-3.055794716E0,-5.726852417E0
5.419518040E-1,3.086549938E-1,-3.131674290E0,-5.905359745E0
5.590536000E-1,3.483045697E-1,-2.966672421E0,-5.630191803E0
5.761599510E-1,3.736916482E-1,-2.740401268E0,-5.323220730E0
5.932641780E-1,3.219847679E-1,-2.584185123E0,-5.255966663E0
6.103690350E-1,2.596620321E-1,-2.491346836E0,-5.381971836E0
6.274728950E-1,7.945582271E-2,-2.234492779E0,-5.419857979E0
6.445766430E-1,7.331296802E-2,-2.128064632E0,-5.413860321E0
6.616807170E-1,1.723075509E-1,-1.876154900E0,-5.013539791E0
6.787852900E-1,1.297664940E-1,-1.634747982E0,-4.776162624E0
6.958893630E-1,1.051347852E-1,-1.004392147E0,-4.658953190E0
7.129936820E-1,1.496896148E-3,-1.427998543E-1,-4.298439026E0
7.300976120E-1,-2.423333079E-1,8.495016098E-1,-3.845262051E0
7.472025930E-1,-4.845640063E-1,1.894760609E0,-3.094122171E0
7.643063300E-1,-2.757492065E-1,2.669465065E0,-1.804886341E0
7.814101800E-1,-7.851630449E-2,3.143328190E0,-9.197368622E-1
7.985143670E-1,1.843067408E-1,3.602099419E0,-1.151943207E-2
8.156213380E-1,1.782244742E-1,4.018251419E0,2.558312416E-1
8.327227170E-1,-2.957665175E-2,3.926560402E0,-7.100825310E-1
8.498268720E-1,-4.529229403E-1,3.990803242E0,-1.991020918E0
8.669311190E-1,-2.904305160E-1,3.540570259E0,-2.945698738E0
8.840355600E-1,-1.346041262E-2,2.919075012E0,-2.783702374E0
9.011394090E-1,1.815970540E-1,2.810791016E0,-2.016985178E0
9.182322730E-1,-2.442604005E-1,3.317511559E0,-1.557164669E0
9.353477400E-1,-6.758229136E-1,4.455256462E0,-6.062450409E-1
9.524521910E-1,-7.731120586E-1,5.629590988E0,5.130910873E-2
9.695561620E-1,-5.221405029E-1,5.514196396E0,4.245352745E-1
9.866604090E-1,-3.267716169E-1,4.851422310E0,4.288005829E-2
1.003764809E0,-2.677402496E-1,5.054563522E0,-3.580708504E-1
1.020869045E0,-3.277432621E-1,6.405766487E0,-4.344725609E-1
1.037973526E0,-4.978030920E-2,8.271936417E0,8.783583641E-1
1.055077202E0,6.636479497E-1,9.894634247E0,2.772002697E0
1.072181460E0,1.155083299E0,1.126875114E1,4.419442654E0
1.089285727E0,1.148001194E0,1.166395760E1,4.047412395E0
1.106391948E0,1.161561251E0,1.105221176E1,2.125373363E0
1.123493895E0,1.220081925E0,9.946121216E0,6.062293053E-1
1.140598050E0,1.077357054E0,9.044964790E0,-1.688127518E-1
1.157702481E0,8.361297250E-1,8.186634064E0,-3.299007416E-1
1.174806493E0,6.139860153E-1,7.481932640E0,-2.467393875E-2
1.191906895E0,7.607028484E-1,6.669069767E0,-9.208154678E-2
1.208997500E0,1.006482720E0,5.911712646E0,-5.550107956E-1
1.226119202E0,9.962155819E-1,5.467493057E0,-1.181312561E0
1.243223093E0,7.820756435E-1,4.925273895E0,-1.802936077E0
1.260327370E0,5.759978294E-1,4.178530693E0,-1.855069637E0
1.277431577E0,3.006028831E-1,3.454195976E0,-1.766673565E0
1.294536402E0,1.269387603E-1,2.509137154E0,-1.681502104E0
1.311639836E0,-7.788594067E-2,1.857763290E0,-1.782575369E0
1.328744622E0,-7.784041017E-2,1.517139435E0,-1.819029331E0
1.345848655E0,2.342564613E-1,1.358223915E0,-1.918759823E0
1.362952730E0,3.982611895E-1,1.242007256E0,-2.057996750E0
1.380056477E0,3.263027966E-1,1.206311226E0,-2.187033176E0
1.397160826E0,1.772639900E-1,1.308343887E0,-2.386766195E0
1.414265072E0,6.015940011E-2,1.170391083E0,-2.623706818E0
1.431369462E0,-3.064194024E-1,1.052148819E0,-2.708553314E0
1.448473312E0,-4.091603458E-1,7.246913910E-1,-2.687377214E0
1.465577609E0,-4.450369775E-1,3.347234726E-1,-2.900824547E0
1.482682141E0,-3.927152753E-1,2.795038223E-1,-2.901969194E0
1.499786174E0,-3.830419183E-1,3.968505859E-1,-2.987092972E0
1.516890166E0,-2.706284523E-1,3.439311981E-1,-3.150917530E0
1.533994230E0,-1.708204597E-1,2.222881317E-1,-3.185459614E0
1.551098487E0,-2.218118906E-1,-1.837687492E-1,-3.380137205E0
1.568202908E0,-1.595113575E-1,-7.448797226E-1,-3.766023397E0
1.585306736E0,-7.461336255E-2,-1.081213474E0,-4.153026581E0
1.602410923E0,-5.624255538E-2,-1.150161266E0,-4.371695995E0
1.619515667E0,-6.759399176E-2,-1.139155865E0,-4.182049751E0
1.636619721E0,1.080253124E-1,-1.203172684E0,-3.707237005E0
1.653723480E0,2.695674896E-1,-1.228240967E0,-2.999291420E0
1.670827736E0,4.417860806E-1,-1.318715096E0,-2.357454062E0
1.687931922E0,5.536749363E-1,-1.553112030E0,-2.374363422E0
1.705035873E0,6.221168637E-1,-1.861391068E0,-2.881041288E0
1.722140334E0,5.893559456E-1,-2.114493370E0,-3.506629467E0
1.739244408E0,4.446414709E-1,-2.469972134E0,-3.885955334E0
1.756349194E0,3.491794467E-1,-2.932161331E0,-3.925990582E0
1.773453146E0,3.162401021E-1,-3.183751106E0,-3.938895226E0
1.790557108E0,2.728655636E-1,-3.468906403E0,-3.813334465E0
1.807661142E0,3.252769709E-1,-3.435903549E0,-3.639193535E0
1.824768032E0,4.419106543E-1,-3.359239101E0,-4.114662170E0
1.841869910E0,3.718588054E-1,-3.250784874E0,-4.351385593E0
1.858973749E0,4.002321362E-1,-2.449944973E0,-4.852046490E0
1.876078199E0,3.094156981E-1,-2.120652676E0,-4.890838623E0
1.893182222E0,3.359821439E-1,-1.697133064E0,-4.653643131E0
1.910286703E0,3.989553452E-1,-1.240620136E0,-4.146691322E0
1.927388966E0,3.965585530E-1,-6.105146408E-1,-3.634099960E0
1.944494637E0,2.829671800E-1,9.194278717E-2,-3.281841278E0
1.961598966E0,2.186664045E-1,7.091312408E-1,-3.222956181E0
1.978703294E0,1.856259108E-1,1.254894257E0,-3.037706852E0
1.995807468E0,2.728939652E-1,1.391606331E0,-2.854197025E0
2.012911431E0,2.992227376E-1,1.307416916E0,-2.650266647E0
2.030015636E0,3.247402012E-1,1.104729652E0,-2.521538973E0
2.047120260E0,3.271825612E-1,8.010663986E-1,-2.518764019E0
2.064226765E0,2.919531167E-1,4.981889725E-1,-2.454876423E0
2.081328245E0,3.512282968E-1,-2.744007111E-2,-2.740086079E0
2.098432156E0,3.912067711E-1,-4.340271950E-1,-2.921263218E0
2.115536677E0,4.438661337E-1,-9.763169289E-1,-3.299289942E0
2.132640670E0,4.024939835E-1,-1.511453629E0,-3.626623631E0
2.218151436E0,4.966171384E-1,-3.483564377E0,-4.320160866E0
2.235265763E0,5.092231631E-1,-3.572597027E0,-4.238054752E0
2.252367590E0,4.577043056E-1,-3.543892384E0,-4.288622856E0
2.269474064E0,3.434057832E-1,-3.458266735E0,-4.402539253E0
2.286578239E0,2.742751241E-1,-3.287820816E0,-4.534279346E0
2.303682375E0,3.105584979E-1,-3.177945137E0,-4.475298882E0
2.320786814E0,2.728594840E-1,-2.949177265E0,-4.407062054E0
2.337891296E0,2.101762593E-1,-2.483325958E0,-4.200587273E0
2.354995063E0,1.680977345E-1,-2.105512619E0,-3.944444418E0
2.372099230E0,1.479319334E-1,-1.830079556E0,-3.836692810E0
2.389203649E0,1.266633570E-1,-1.668255329E0,-4.070075989E0
2.406307509E0,1.541198194E-1,-1.374953747E0,-4.151901245E0
2.423411665E0,2.522876859E-1,-8.214111328E-1,-3.797114611E0
2.440515860E0,2.714366317E-1,-1.992006302E-1,-3.044512749E0
2.457620310E0,1.195730269E-1,3.440713882E-1,-2.261816740E0
2.474724170E0,-7.477390766E-2,1.259395599E0,-2.076051235E0
2.491828987E0,1.901185513E-2,2.003904343E0,-2.050197840E0
2.508932553E0,1.242330074E-1,2.697236061E0,-2.180021286E0
2.526037013E0,1.634906232E-1,3.166890144E0,-1.891398430E0
2.543140903E0,2.176904380E-1,3.466417313E0,-1.189448833E0
2.560247520E0,2.086482644E-1,3.711769104E0,-3.994116783E-1
2.577349316E0,6.074535847E-2,4.009116173E0,-2.856736183E-1
2.594444030E0,3.856462240E-2,4.162752151E0,-1.957983971E-1
2.611557636E0,7.236468792E-2,4.476321220E0,-4.667320251E-1
2.628662056E0,1.694000363E-1,4.674883842E0,-3.478832245E-1
2.645766465E0,2.790658772E-1,5.048972130E0,-6.684017181E-2
2.662870661E0,4.739807844E-1,5.442159653E0,2.388987541E-1
2.679974369E0,7.427148223E-1,5.750396729E0,3.561849594E-1
2.697078565E0,6.984401345E-1,6.134548187E0,-1.390719414E-1
2.714182771E0,4.163061678E-1,6.484960556E0,-7.244012356E-1
2.731287272E0,2.405701876E-1,6.610151291E0,-1.129367590E0
2.748391143E0,2.551435232E-1,6.767330170E0,-1.356892347E0
2.765495308E0,3.215050101E-1,7.153145790E0,-1.645934582E0
2.782599666E0,1.485493779E-1,7.722173691E0,-1.840493917E0
2.799703933E0,-3.230839968E-2,8.369963646E0,-1.729979753E0
2.816807784E0,-3.667425513E-1,9.086006165E0,-1.026782751E0
2.833911990E0,-5.148774385E-1,9.609204292E0,-5.224466324E-1
2.851016226E0,-6.351460218E-1,9.567939758E0,-2.214441299E-1
2.868120657E0,-7.488765717E-1,8.973883629E0,-3.184747696E-1
2.885224577E0,-7.826752067E-1,7.892393112E0,-9.921817780E-1
2.902328621E0,-7.483769655E-1,6.530671120E0,-1.696845055E0
2.987849692E0,-4.110872746E-3,2.169710159E0,-1.303383350E0
3.004954152E0,4.099363089E-2,1.808400154E0,-1.395095825E0
3.022058033E0,3.308063745E-2,1.515054703E0,-1.832296610E0
3.039162270E0,7.576644421E-3,1.124580383E0,-2.124195099E0
3.056266435E0,-6.616789103E-2,8.175630569E-1,-2.283816576E0
3.073371394E0,-1.007508636E-1,4.793090820E-1,-2.499623299E0
3.090474796E0,-1.329177618E-1,5.807762146E-1,-2.533719540E0
3.107579073E0,-5.276095867E-2,7.723340988E-1,-2.522527933E0
3.124683157E0,3.276504874E-1,9.950952530E-1,-2.392431021E0
3.141787567E0,5.906708241E-1,1.123661041E0,-2.072919130E0
3.158891458E0,9.077633023E-1,1.385818481E0,-1.393907070E0
3.175995704E0,1.380466580E0,1.383300781E0,-9.831857681E-1
3.193099901E0,1.517269373E0,1.328101158E0,-1.007700682E0
3.210204472E0,1.396878958E0,9.709987640E-1,-1.325881243E0
3.227298374E0,1.177491188E0,6.459245682E-1,-1.762428522E0
3.244412324E0,8.724809885E-1,3.724126816E-1,-2.217308044E0
3.261514110E0,7.187848687E-1,1.795330048E-1,-2.484928370E0
3.278621053E0,7.515877485E-1,1.497154236E-1,-2.692591190E0
3.295725177E0,7.357079387E-1,2.539453506E-1,-2.729898453E0
3.312829139E0,9.125282764E-1,8.082389832E-2,-2.677834034E0
3.329933365E0,1.141726494E0,-1.075792313E-1,-2.678411007E0
3.347040502E0,1.483686090E0,-3.056507111E-1,-2.803215265E0
3.364141819E0,1.695949793E0,-4.555473328E-1,-2.735973835E0
3.381245892E0,1.755461812E0,-5.713424683E-1,-2.695574284E0
3.398349957E0,1.579197884E0,-7.220540047E-1,-2.858643055E0
3.415454456E0,1.427609563E0,-9.279260635E-1,-3.160820007E0
3.432558378E0,1.303286076E0,-1.122435570E0,-3.350156546E0
3.449662584E0,1.143368244E0,-1.457413673E0,-3.495762825E0
3.466766811E0,1.026927471E0,-1.825384140E0,-3.312456131E0
3.483871282E0,8.191049695E-1,-2.066559315E0,-3.142816067E0
3.500975183E0,7.652770281E-1,-2.173300266E0,-3.019587040E0
3.518079704E0,6.740768552E-1,-2.078453541E0,-3.051664352E0
3.535183401E0,5.434947610E-1,-2.126946449E0,-3.560113907E0
3.552288696E0,4.552484751E-1,-2.328327656E0,-3.629194260E0
3.569391873E0,4.238932133E-1,-2.489753246E0,-3.857248783E0
3.586496070E0,4.023503065E-1,-2.556106567E0,-3.369956493E0
3.603600236E0,3.951736093E-1,-2.409187794E0,-2.882593632E0
3.620704726E0,2.774142027E-1,-2.090613842E0,-2.615681410E0
3.637809177E0,2.723096609E-1,-1.795600891E0,-2.906532764E0
3.654913250E0,1.864118576E-1,-1.547154427E0,-3.239521027E0
3.672016999E0,1.687873602E-1,-1.491261482E0,-3.727512598E0
3.689121399E0,2.232270241E-1,-1.386499882E0,-3.936175585E0
3.706227842E0,2.510067225E-1,-1.293823242E0,-3.938793421E0
3.723329525E0,2.468159795E-1,-1.074844837E0,-3.922019243E0
3.740433690E0,3.826808333E-1,-9.571833611E-1,-3.913074017E0
3.757538152E0,5.313804746E-1,-6.735019684E-1,-3.868762493E0
3.774642042E0,5.361918807E-1,-2.023782730E-1,-3.748883009E0
3.791745068E0,5.531277657E-1,-5.391502380E-2,-3.909060001E0
3.808841055E0,5.395604968E-1,8.824825287E-2,-3.837344170E0
3.825954853E0,5.417882204E-1,5.718231201E-2,-3.751755238E0
3.843058795E0,5.500728488E-1,-4.798698425E-2,-3.456329107E0
3.860162991E0,6.833983660E-1,-3.020544052E-1,-2.926023483E0
3.877267187E0,7.960870862E-1,-5.004711151E-1,-2.305910110E0
3.894371901E0,8.070472479E-1,-8.051586151E-1,-2.299113989E0
3.911475528E0,7.665387392E-1,-1.226771832E0,-2.596144915E0
3.928579907E0,6.800944805E-1,-1.655121326E0,-2.826617718E0
3.945684388E0,6.254191399E-1,-2.166714191E0,-3.280653000E0
3.962788533E0,7.614143491E-1,-2.638887882E0,-3.684667587E0
3.979892311E0,9.433922768E-1,-2.941432953E0,-3.854148149E0
3.996996456E0,9.517388344E-1,-3.135137081E0,-3.975197315E0
4.014100633E0,8.933848739E-1,-3.286125660E0,-3.915911198E0
4.031205102E0,7.280560732E-1,-3.343728542E0,-3.938796997E0
4.048299686E0,4.778847694E-1,-3.357543468E0,-3.747273684E0
4.065413250E0,4.547164440E-1,-3.130019665E0,-4.208720207E0
4.082517945E0,4.498886466E-1,-3.069658756E0,-4.177740097E0
4.099621805E0,5.077484250E-1,-2.930752277E0,-3.964456797E0
4.116725614E0,4.995675087E-1,-2.731878281E0,-3.958793879E0
4.133829882E0,7.049320936E-1,-2.433612347E0,-3.743996382E0
4.150934097E0,7.546396255E-1,-2.315162659E0,-3.070268869E0
4.168038609E0,6.370058060E-1,-2.340468884E0,-3.107260227E0
4.185142530E0,4.987436831E-1,-2.166481495E0,-3.226253510E0
4.202246696E0,1.473503113E-1,-1.573709488E0,-3.429443121E0
4.219351369E0,2.426403761E-2,-9.853892326E-1,-3.386482000E0
4.236455443E0,1.662095785E-1,-4.593791962E-1,-2.938421011E0
4.253559345E0,2.361420393E-1,3.525447845E-2,-2.042893648E0
4.270663500E0,2.433969080E-1,6.501874924E-1,-8.404688835E-1
4.287767573E0,3.806531429E-2,1.635018349E0,-3.069934845E-1
4.304872054E0,-9.468549490E-2,2.455134392E0,-2.672276497E-1
4.321975925E0,1.316271126E-1,3.031595230E0,-4.769515991E-1
4.339080171E0,4.398151636E-1,3.360307693E0,-4.798436165E-1
4.356184306E0,6.073086262E-1,3.572340965E0,-5.352239609E-1
4.373289245E0,4.653403163E-1,4.030282974E0,-3.449735641E-1
4.390392636E0,2.016133070E-1,4.426463127E0,-1.995973587E-1
4.407496762E0,2.111947536E-2,4.596371651E0,1.929202080E-1
4.424601028E0,-6.816953421E-2,4.867222786E0,5.637121201E-2
4.441705489E0,7.269418240E-2,5.011199951E0,-3.419284821E-1
4.458809441E0,-3.158479929E-2,5.070664406E0,-5.643973351E-1
4.475913646E0,-8.396172523E-2,5.086769104E0,-1.833677292E-2
4.493017803E0,-1.524997354E-1,5.454722404E0,7.947444916E-2
4.510122333E0,-1.286854744E-1,5.618970871E0,-2.937216759E-1
4.527226723E0,5.091667175E-3,6.451461792E0,-9.932887554E-1
4.544327886E0,1.148973107E-1,7.254005432E0,-1.797224760E0
4.561434565E0,1.959363222E-1,7.967906952E0,-1.692604542E0
4.578539016E0,4.071021974E-1,8.506383896E0,-3.377203941E-1
4.595643364E0,8.057589531E-1,8.804146767E0,6.993513107E-1
4.612747082E0,9.018431902E-1,8.810487747E0,7.763342857E-1
4.629851247E0,7.602722049E-1,8.841687202E0,-1.215133667E-1
4.646956064E0,5.623563528E-1,8.717737198E0,-9.185822010E-1
4.664059741E0,2.073011696E-1,8.519648552E0,-1.170222998E0
4.681163997E0,-7.967829704E-3,8.135026932E0,-7.976901531E-1
4.698268010E0,1.271425486E-1,7.441156387E0,-4.965481758E-1
4.715375014E0,4.682996869E-1,6.485440254E0,-4.955151081E-1
4.732476412E0,6.481755972E-1,5.476535797E0,-7.672920227E-1
4.749580567E0,6.935071945E-1,4.602025986E0,-1.097313643E0
4.766684764E0,6.076689959E-1,3.735789299E0,-1.166579723E0
4.783789194E0,4.596284628E-1,2.785274506E0,-1.142934322E0
4.800893613E0,2.648222446E-1,1.794087410E0,-1.122446775E0
4.817997778E0,1.035757959E-1,9.428339005E-1,-1.016983032E0
4.835101414E0,1.677090526E-1,1.768884659E-1,-1.366895676E0
4.852206109E0,3.600326180E-1,-1.502933502E-1,-1.747370481E0
4.869309867E0,3.657786548E-1,-1.751260757E-1,-1.966910839E0
4.886414043E0,4.112941325E-1,-1.896953583E-1,-2.163459301E0
4.903518239E0,5.357732177E-1,-2.117204666E-1,-2.466274500E0
4.920622710E0,6.622710228E-1,-7.467269897E-4,-2.560183525E0
4.937726937E0,6.844246387E-1,1.541700363E-1,-2.399004936E0
4.954831345E0,8.425096273E-1,2.634744644E-1,-2.203358889E0
4.971935032E0,8.994716406E-1,5.075445175E-1,-1.712973356E0
4.989039412E0,9.747316241E-1,6.620969772E-1,-1.386327267E0
5.006143190E0,8.942794204E-1,8.772172928E-1,-1.369197130E0
5.023247580E0,8.209540844E-1,9.649133682E-1,-1.514784336E0
5.040351714E0,6.948091984E-1,8.230285645E-1,-1.805986643E0
5.057456205E0,4.768327773E-1,5.901126862E-1,-1.910867929E0
5.074560147E0,2.859057188E-1,3.438863754E-1,-1.944771528E0
5.091664760E0,2.029245198E-1,1.157264709E-1,-1.899193525E0
5.108758448E0,2.838027775E-1,-9.392070770E-2,-1.870840311E0
5.125872948E0,3.303444684E-1,-1.491212845E-1,-2.152326822E0
5.142974358E0,2.687295675E-1,-2.360467911E-1,-2.596508980E0
5.160081126E0,1.951797009E-1,-4.072151184E-1,-2.990354061E0
5.177185231E0,1.349452436E-1,-5.005416870E-1,-2.934845686E0
5.194279691E0,3.292294741E-1,-8.682036400E-1,-2.827824831E0
5.211394029E0,4.640396535E-1,-1.156822681E0,-2.584734440E0
5.228498389E0,5.111860037E-1,-1.426153183E0,-2.397494316E0
5.245602086E0,6.268380880E-1,-1.667014122E0,-2.395953655E0
5.262706517E0,7.146382332E-1,-1.791929245E0,-2.465105295E0
5.279810335E0,7.113217115E-1,-2.050169468E0,-2.691735744E0
5.296914572E0,6.006744504E-1,-2.412674427E0,-2.570490599E0
5.314018758E0,4.507494867E-1,-2.836922169E0,-2.728542805E0
5.331123187E0,4.377584755E-1,-3.245301723E0,-2.999354124E0
5.348227139E0,3.963550031E-1,-3.374542713E0,-3.413968086E0
5.365331386E0,3.840782344E-1,-3.299243450E0,-3.579582453E0
5.382435928E0,3.587394059E-1,-3.071115017E0,-3.623683453E0
5.399540021E0,3.328967690E-1,-2.865643978E0,-3.427730799E0
5.416643709E0,1.449623108E-1,-2.640989780E0,-2.879863262E0
5.433748078E0,-2.224260569E-2,-2.460381508E0,-2.841483593E0
5.450852223E0,-3.790283203E-2,-2.300830364E0,-3.184902430E0
5.467956694E0,3.979951143E-2,-2.027195930E0,-3.396845341E0
5.485060615E0,1.537770331E-1,-1.588682652E0,-3.264459372E0
5.502164770E0,1.910935044E-1,-1.155470371E0,-3.140996218E0
5.519269199E0,2.539433241E-1,-7.527437210E-1,-3.030571699E0
5.536373558E0,2.492080033E-1,-4.556264877E-1,-3.203908443E0
5.553479962E0,1.841496229E-1,-2.822704315E-1,-3.561487675E0
5.570581594E0,1.848723888E-1,-1.918668747E-1,-3.749800682E0
5.587685780E0,2.482107580E-1,-2.305173874E-1,-3.747915030E0
5.604790240E0,3.130284548E-1,-3.722295761E-1,-3.492669582E0
5.621894111E0,3.287035823E-1,-7.096509933E-1,-3.182330370E0
5.638998337E0,2.392258346E-1,-1.128240585E0,-2.978347778E0
5.656102655E0,1.238440871E-1,-1.616484165E0,-2.894803762E0
5.673207126E0,9.053665400E-2,-1.968216419E0,-2.745958328E0
5.690310966E0,6.390762329E-2,-2.308695316E0,-2.864333868E0
5.707415111E0,1.056748033E-1,-2.655385017E0,-2.884254456E0
5.724519286E0,8.255267143E-2,-3.007733345E0,-3.220759630E0
5.741623686E0,1.216424108E-1,-3.183586121E0,-3.453455448E0
5.758727719E0,1.259637475E-1,-3.320159912E0,-3.366378784E0
5.775823685E0,2.390645444E-1,-3.498296261E0,-3.435607910E0
5.792936162E0,1.984425187E-1,-3.522403717E0,-3.297099352E0
5.810041008E0,1.132338047E-1,-3.478759289E0,-3.274691343E0
5.827144879E0,7.194870710E-2,-3.392086983E0,-3.347635984E0
5.844248627E0,2.170479894E-1,-3.348412037E0,-3.433545351E0
5.861352772E0,1.958211362E-1,-3.293858528E0,-3.478543282E0
5.878457223E0,1.912468672E-1,-3.206517696E0,-3.347159386E0
5.895561479E0,2.160840034E-1,-2.997877598E0,-3.027938128E0
5.912665350E0,1.899048984E-1,-2.655007362E0,-2.934528828E0
5.929769597E0,1.051736176E-1,-2.398372650E0,-2.886357307E0
5.946874148E0,6.690621376E-3,-2.126244545E0,-2.830422640E0
5.963978405E0,1.226690412E-1,-1.957918167E0,-2.851319075E0
5.981082224E0,2.585604489E-1,-1.646010876E0,-2.812894821E0
5.998186288E0,2.183319926E-1,-1.039273262E0,-2.747853756E0
6.015290780E0,2.789228261E-1,-3.913955688E-1,-2.139747620E0
6.032394680E0,3.412864208E-1,-1.168766022E-1,-1.352647543E0
6.049500809E0,4.717104435E-1,2.395515442E-1,-9.143319130E-1
6.066603072E0,5.067960620E-1,8.602342606E-1,-6.421673298E-1
6.083707483E0,3.103721142E-1,1.345960617E0,-8.976469040E-1
6.100811983E0,1.203380525E-1,1.525437355E0,-1.068426132E0
6.117905925E0,1.897049248E-1,1.720057487E0,-1.035032511E0
6.135019774E0,3.138425648E-1,2.011446953E0,-1.380247355E0
6.152121682E0,3.691246808E-1,2.628643036E0,-8.953168392E-1
6.169228267E0,2.961395979E-1,3.231981277E0,-5.300490856E-1
6.186332403E0,1.336227655E-1,3.894002914E0,-1.066794395E-1
6.203436569E0,3.630042076E-2,4.425770760E0,-1.351020336E-1
6.220541048E0,2.730950415E-1,4.901496887E0,2.079725266E-3
6.237645580E0,7.230764031E-1,5.555262566E0,-1.667039394E-1
6.254749634E0,8.154172897E-1,6.645773888E0,-2.248330116E-1
6.271853474E0,3.350911140E-1,8.152257919E0,-6.736416817E-1
6.288957751E0,-2.732034028E-1,9.694094658E0,-1.538370371E0
6.306061693E0,-4.929342270E-1,1.078905964E1,-1.409636259E0
6.323168819E0,-2.278152704E-1,1.135513401E1,-7.361721992E-2
6.340270165E0,-8.498796821E-2,1.141844177E1,1.259644985E0
6.357374647E0,-4.371909499E-1,1.156531906E1,2.308470726E0
6.374478557E0,-1.106464148E0,1.142115879E1,2.427450180E0
6.391582896E0,-1.301250339E0,1.074252033E1,1.297454834E0
6.408687062E0,-1.069073915E0,9.808431625E0,5.246372223E-1
6.425791389E0,-7.046535611E-1,8.846128464E0,2.706375122E-1
6.442895351E0,-2.299894691E-1,7.782280922E0,3.525404930E-1
6.459999506E0,2.936434150E-1,6.654946327E0,7.940301895E-1
6.477103672E0,8.270437717E-1,5.355506897E0,8.375940323E-1
6.494211712E0,1.104910851E0,4.153610229E0,5.933356285E-1
6.511311962E0,1.203783154E0,3.123289108E0,3.818702698E-2
6.528416545E0,1.188437223E0,2.070146561E0,-7.714688778E-1
6.545520628E0,1.079762220E0,1.283660889E0,-1.284140825E0
6.562625008E0,8.887202144E-1,5.880422592E-1,-1.575223923E0
6.579728816E0,7.526574135E-1,2.732591629E-1,-1.673502684E0
6.596835668E0,8.134949207E-1,-1.387891769E-1,-1.777052164E0
6.613937250E0,9.138305783E-1,-3.191385269E-1,-1.964528680E0
6.631041720E0,8.827710748E-1,-2.157726288E-1,-2.106810570E0
6.648145621E0,8.807265759E-1,-6.319999695E-3,-1.864591599E0
6.665249836E0,8.216954470E-1,1.962299347E-1,-1.430571795E0
6.682354196E0,7.323989272E-1,2.863674164E-1,-8.260529041E-1
6.699450304E0,6.745492816E-1,3.725147247E-2,-7.057840824E-1
6.716562364E0,6.435348392E-1,-2.633132935E-1,-6.984028816E-1
6.733666529E0,4.779841304E-1,-5.290374756E-1,-1.324458599E0
6.750760461E0,4.925284982E-1,-5.621261597E-1,-1.944397449E0
6.767875308E0,5.004713535E-1,-3.555479050E-1,-1.961721301E0
6.784979238E0,4.368657172E-1,-3.323287964E-1,-2.032062769E0
6.802083313E0,4.144472182E-1,-4.009971619E-1,-2.105654716E0
6.819188201E0,4.372591674E-1,-5.993423462E-1,-1.975958467E0
6.836292559E0,3.965034783E-1,-8.451128006E-1,-2.021807194E0
6.853396084E0,4.106958508E-1,-1.072755814E0,-2.299668789E0
6.870500137E0,3.622204363E-1,-1.185090065E0,-2.657907724E0
6.887604394E0,2.647817433E-1,-1.193941116E0,-2.783524275E0
6.904708874E0,1.334324181E-1,-1.286134243E0,-2.616518497E0
6.921812806E0,1.077553034E-1,-1.544078827E0,-2.323360920E0
6.938916952E0,1.571615338E-1,-1.927598953E0,-2.250253677E0
6.956009306E0,1.752861142E-1,-2.347640514E0,-2.351077318E0
6.973126178E0,1.904961467E-1,-2.671807766E0,-2.412844181E0
6.990229620E0,2.341738641E-1,-3.049849510E0,-2.438219070E0
7.007333786E0,2.072889805E-1,-3.393837929E0,-2.375291348E0
7.024437848E0,1.058589518E-1,-3.599541187E0,-2.271171331E0
7.041534284E0,-1.420590281E-2,-3.777832508E0,-2.119086266E0
7.058646363E0,-5.055448413E-2,-3.883717060E0,-2.234591246E0
7.075750528E0,1.289558411E-2,-3.906932831E0,-2.268567085E0
7.092854766E0,1.528065801E-1,-3.949523449E0,-2.324626446E0
7.109959826E0,8.997341990E-2,-3.811187744E0,-2.183154106E0
7.127063686E0,6.882929802E-2,-3.610130787E0,-2.072912216E0
7.144167384E0,4.171320796E-2,-3.377606392E0,-2.052388191E0
7.161271641E0,7.458209991E-3,-2.905123234E0,-1.861087441E0
7.178366203E0,-7.936838269E-2,-2.399467945E0,-1.999916434E0
7.195480164E0,-4.623985291E-2,-1.643448830E0,-2.280933619E0
7.212584167E0,-2.056884766E-2,-9.574966431E-1,-2.836365700E0
7.229688332E0,-7.544891536E-2,-3.335027695E-1,-3.129865885E0
7.246792783E0,-2.799718380E-1,-3.234863281E-2,-3.226612568E0
7.263896846E0,-3.817994595E-1,1.543493271E-1,-3.583440542E0
7.281001011E0,-3.743807971E-1,3.874711990E-1,-3.597297192E0
7.298105096E0,-2.523282468E-1,6.258401871E-1,-3.238884211E0
7.315209556E0,3.256921470E-2,5.884494781E-1,-2.752560139E0
7.332313478E0,2.511318326E-1,3.337392807E-1,-2.052272320E0
7.417834701E0,3.437566161E-1,-2.110927582E0,-2.324593544E0
7.434938795E0,1.284116507E-1,-2.693607330E0,-2.572633028E0
7.452043133E0,1.388190985E-1,-3.231695652E0,-2.816738129E0
7.469147106E0,2.622140944E-1,-3.603233337E0,-2.906548500E0
7.486251393E0,4.287518263E-1,-3.916507244E0,-3.096735477E0
7.503355609E0,5.721364021E-1,-4.158150196E0,-3.478409290E0
7.520459998E0,5.678784847E-1,-4.306563854E0,-3.613443375E0
7.537553462E0,4.702619314E-1,-4.523331642E0,-3.584635496E0
7.554668267E0,3.655045331E-1,-4.788740158E0,-3.562854052E0
7.571772535E0,3.874154389E-1,-4.942098141E0,-3.383105040E0
7.588876752E0,3.246713877E-1,-4.812188625E0,-3.120341301E0
7.605983307E0,2.907780707E-1,-4.567323685E0,-2.932595015E0
7.623085011E0,3.348478675E-1,-4.243561745E0,-3.155630827E0
7.640189136E0,3.054233193E-1,-3.787604332E0,-3.659063816E0
7.657293678E0,2.038927078E-1,-3.318700314E0,-3.629042149E0
7.674397537E0,2.385861874E-1,-3.013811111E0,-3.297753811E0
7.691502232E0,2.963781357E-1,-2.556526184E0,-2.555587530E0
7.708606123E0,1.443791389E-2,-1.572112560E0,-1.795762062E0
7.725710542E0,9.368512779E-2,-6.822385788E-1,-1.347928882E0
7.742814271E0,2.953768373E-1,1.109790802E-1,-9.281759262E-1
7.759918649E0,4.923364222E-1,7.643117905E-1,-4.308190346E-1
7.777022825E0,7.486229539E-1,1.229143143E0,-3.217263222E-1
7.794117724E0,5.021486878E-1,1.631993294E0,-9.811782837E-2
7.811231217E0,2.610806823E-1,1.759404182E0,3.142070770E-2
7.828335993E0,2.057275325E-1,1.965058327E0,3.316271305E-1
7.845440137E0,3.323035240E-1,2.087140083E0,1.377375126E-1
7.862544252E0,6.297366619E-1,2.043051720E0,-5.115785599E-1
7.879647969E0,9.231246710E-1,2.117235184E0,-1.127416849E0
7.896751942E0,9.168077707E-1,2.502038002E0,-1.334930658E0
7.913856382E0,6.044547558E-1,2.951608658E0,-7.371718884E-1
7.930960903E0,4.247116446E-1,3.454753876E0,1.124405861E-1
7.948064794E0,2.040545344E-1,4.464127541E0,6.988503933E-1
7.965169071E0,1.572898477E-1,5.406981468E0,1.276996374E0
7.982273715E0,3.878140450E-2,5.953111649E0,1.329648733E0
7.999367626E0,-2.199348509E-1,6.185457230E0,4.904034138E-1
8.016481588E0,-4.661169648E-1,6.238645554E0,-3.798847198E-1
8.033583383E0,-4.960859120E-1,6.082084656E0,-6.643872261E-1
8.050690040E0,-2.465848029E-1,5.849020004E0,-6.291787624E-1
8.067794583E0,-2.044182718E-1,5.834756851E0,-1.601047516E-1
8.084897618E0,-4.000190496E-1,6.215419769E0,3.467752934E-1
8.102002649E0,-6.770374775E-1,7.104884148E0,9.568395615E-1
8.119107069E0,-7.967194915E-1,7.935751915E0,1.250274897E0
8.136211061E0,-4.443879724E-1,8.284498215E0,9.915664196E-1
8.153315349E0,-1.264522225E-1,8.275364876E0,2.816023827E-1
8.170419533E0,-7.742398977E-2,8.382299423E0,1.675968170E-1
8.187523761E0,-1.625408828E-1,8.638205528E0,4.950146675E-1
8.204628180E0,-1.513578594E-1,8.475701332E0,1.362280846E0
8.221732173E0,-1.102474332E-1,7.793098450E0,2.171906471E0
8.238836308E0,2.769097686E-2,6.760148048E0,2.330362320E0
8.255940483E0,2.026825696E-1,5.585807800E0,1.746921062E0
8.273045504E0,2.748858333E-1,4.404663086E0,9.026432037E-1
8.290148966E0,3.208661675E-1,3.365695953E0,2.267179489E-1
8.307253162E0,2.764501274E-1,2.546085358E0,-2.400503159E-1
8.324357399E0,2.425585240E-1,1.946605682E0,-7.269113064E-1
8.341461818E0,3.162367642E-1,1.499347687E0,-9.648563862E-1
8.358565832E0,4.959499538E-1,1.055285454E0,-9.892537594E-1
8.375670027E0,6.168543100E-1,7.162475586E-1,-1.132253170E0
8.392774285E0,6.280900240E-1,5.546379089E-1,-1.367436409E0
8.409879172E0,6.532028913E-1,5.237274170E-1,-1.441952467E0
8.426983002E0,5.979362130E-1,6.073503494E-1,-1.450447798E0
8.444086872E0,5.577796698E-1,7.236814499E-1,-1.215729713E0
8.461190997E0,4.097631574E-1,9.630432129E-1,-6.936736107E-1
8.478295519E0,3.352542818E-1,1.126749992E0,-1.683311462E-1
8.495399968E0,3.129101396E-1,1.168978691E0,-8.447146416E-2
8.512503676E0,3.584727645E-1,1.025393486E0,-2.851443291E-1
8.529607902E0,3.824317157E-1,7.939825058E-1,-5.224275589E-1
8.546712394E0,3.410247564E-1,4.477024078E-1,-9.457347393E-1
8.563816813E0,3.243468106E-1,4.200935364E-3,-1.422912598E0
8.580920572E0,2.248349637E-1,-2.710037231E-1,-1.697931767E0
8.598024798E0,1.688783765E-1,-5.246629715E-1,-1.943449378E0
8.615129085E0,2.234120071E-1,-7.246904373E-1,-1.970595241E0
8.632233169E0,3.362759352E-1,-9.915466309E-1,-2.045614719E0
8.649337355E0,3.470715880E-1,-1.205565929E0,-2.089443684E0
8.666441490E0,2.958421409E-1,-1.278620243E0,-2.151960373E0
8.683546053E0,2.656533122E-1,-1.291027546E0,-2.082321644E0
8.700650430E0,2.317523658E-1,-1.411093712E0,-2.005054951E0
8.717754343E0,2.983233631E-1,-1.666328907E0,-2.031619549E0
8.734858324E0,4.145643115E-1,-1.998747826E0,-1.981354475E0
8.751962805E0,5.207048059E-1,-2.396486759E0,-1.841273069E0
8.769066778E0,4.527667165E-1,-2.718509197E0,-1.780918956E0
8.786171004E0,3.681166768E-1,-2.981192589E0,-1.788008332E0
8.803275230E0,2.267648429E-1,-3.213524342E0,-1.771577954E0
8.820379772E0,2.311347723E-1,-3.515840530E0,-1.859444141E0
8.837483622E0,1.770366430E-1,-3.776523590E0,-2.016202927E0
8.854588377E0,1.554905623E-1,-3.842226982E0,-2.195527554E0
8.871692146E0,2.199933976E-1,-3.786440849E0,-2.173899651E0
8.888796597E0,2.497486174E-1,-3.622735500E0,-2.105880260E0
8.905900406E0,9.802826494E-2,-3.333525181E0,-1.917068005E0
8.923004734E0,-9.013770521E-2,-3.094520092E0,-1.970768094E0
8.940108930E0,-1.849945784E-1,-3.000693798E0,-2.213560104E0
8.957205537E0,-2.461957783E-1,-2.912351608E0,-2.512729645E0
8.974317392E0,-2.129471153E-1,-2.739266872E0,-2.582165718E0
8.991422026E0,-1.881295741E-1,-2.617765427E0,-2.662837505E0
9.008516396E0,-2.261969149E-1,-2.499520779E0,-2.753909349E0
9.025630275E0,-2.669589520E-1,-2.327833652E0,-3.011893988E0
9.042731735E0,-3.076631129E-1,-2.133898735E0,-3.301074028E0
9.059838494E0,-3.188409209E-1,-2.054657936E0,-3.534319878E0
9.076942588E0,-2.671966553E-1,-2.090078354E0,-3.625249863E0
9.094029919E0,-9.723247588E-2,-2.168369293E0,-3.445181370E0
9.111151102E0,1.350292712E-1,-2.334506035E0,-3.004528046E0
9.128255461E0,2.303755581E-1,-2.457982540E0,-2.484528542E0
9.145359717E0,2.772595584E-1,-2.694992542E0,-1.963403225E0
9.162464148E0,2.962790430E-1,-2.856415272E0,-1.643842936E0
9.179568099E0,2.678393722E-1,-2.874483585E0,-1.475684404E0
9.196672143E0,2.643419206E-1,-2.910295963E0,-1.598062754E0
9.213776390E0,3.334345818E-1,-3.083822250E0,-1.790116549E0
9.230880870E0,2.824759185E-1,-3.142154217E0,-1.749345422E0
9.247984863E0,2.636017203E-1,-3.232952595E0,-1.814549923E0
9.265089018E0,2.509408295E-1,-3.259544849E0,-1.800679684E0
9.282193672E0,2.897779942E-1,-3.237015724E0,-1.847505450E0
9.299298131E0,3.344758749E-1,-3.268586636E0,-2.078999519E0
9.316401687E0,3.522844315E-1,-3.358174801E0,-2.181845903E0
9.333505812E0,2.908995748E-1,-3.408684254E0,-2.125599384E0
9.350610120E0,2.253059596E-1,-3.287001133E0,-2.187963486E0
9.367714539E0,1.969058216E-1,-2.943805695E0,-2.148541451E0
9.384818592E0,1.917585582E-1,-2.573517799E0,-2.103740215E0
9.401922666E0,2.286372483E-1,-2.342069626E0,-2.015315056E0
9.419027219E0,2.961677909E-1,-2.240142822E0,-1.829311609E0
9.436131933E0,3.090623617E-1,-2.170795918E0,-1.606853724E0
9.453235468E0,3.286747634E-1,-2.099432945E0,-1.333595514E0
9.470339673E0,1.875888109E-1,-1.657831192E0,-1.349120140E0
9.487446403E0,2.152389288E-2,-1.008696556E0,-1.480172515E0
9.504548350E0,1.245236397E-2,-4.660787582E-1,-1.448515415E0
9.521652322E0,2.459011674E-1,-2.119770050E-1,-1.193733454E0
9.538756336E0,4.595405459E-1,1.640663147E-1,-5.619444847E-1
9.555860674E0,5.836530924E-1,7.518568039E-1,-5.085468292E-2
9.572965684E0,6.792359352E-1,1.567606926E0,4.968934059E-1
9.590058923E0,6.375972033E-1,2.435171127E0,3.014192581E-1
9.607173424E0,4.213848114E-1,3.201052666E0,-1.078603268E-1
9.624277498E0,5.219870806E-2,3.590164185E0,-8.384444714E-1
9.641382111E0,-3.021284044E-1,3.911252975E0,-1.298499107E0
9.658486084E0,-7.419970036E-1,4.064111710E0,-1.027455091E0
9.675590248E0,-1.016682744E0,4.306570053E0,-6.129660606E-1
9.692694525E0,-7.795025110E-1,5.152239799E0,4.980158806E-2
9.709799515E0,-2.395574450E-1,6.599444389E0,9.692516327E-1
9.795320168E0,1.709658802E-1,1.085501099E1,9.287242889E-1
9.812423989E0,-1.193887740E-1,1.052546215E1,-3.198678493E-1
9.829528255E0,-5.159221888E-1,1.049512196E1,-4.280736446E-1
9.846632706E0,-7.064893246E-1,1.009675598E1,5.024983883E-1
9.863737146E0,-5.688410401E-1,8.759582520E0,1.939451694E0
9.880840894E0,-5.222619772E-1,6.969818115E0,2.942902088E0
9.897945030E0,-2.244665027E-1,5.368765831E0,3.010294914E0
9.915049489E0,1.619807780E-1,4.234071732E0,2.386023045E0
9.932153512E0,3.466232419E-1,3.409738541E0,1.256756783E0
9.949257759E0,4.659444690E-1,2.750844955E0,4.218182564E-1
9.966361945E0,3.797963858E-1,2.166810036E0,-6.230020523E-2
9.983466477E0,3.230745792E-1,1.494350433E0,-1.734311581E-1
1.000057347E1,2.913496792E-1,8.216180801E-1,-4.106266499E-1
1.001767486E1,3.852434754E-1,2.093763351E-1,-6.604080200E-1
