"Time (s)","Gyroscope x (rad/s)","Gyroscope y (rad/s)","Gyroscope z (rad/s)"
1.251316700E-1,9.786828607E-2,1.030612960E-1,3.648423031E-2
1.351796390E-1,1.351514459E-1,9.986559302E-2,3.754946589E-2
1.452312530E-1,1.543256342E-1,1.179745570E-1,5.139749497E-2
1.552850030E-1,1.628475040E-1,1.105179265E-1,6.204982474E-2
1.653393260E-1,1.703041345E-1,9.560466558E-2,7.589785010E-2
1.753713050E-1,1.745650619E-1,9.347419441E-2,8.335448056E-2
1.853884930E-1,1.766955256E-1,9.134373069E-2,8.228924870E-2
1.954056800E-1,1.841521561E-1,9.986559302E-2,7.483261824E-2
2.054228680E-1,1.926740259E-1,1.222354919E-1,7.483261824E-2
2.153954200E-1,2.118482143E-1,1.105179265E-1,6.311506033E-2
2.253704200E-1,2.352833450E-1,9.773512930E-2,4.713656008E-2
2.353505760E-1,2.651098669E-1,5.725627393E-2,2.476666868E-2
2.453371390E-1,3.162410557E-1,2.929390874E-3,1.517957076E-2
2.553310970E-1,3.716331720E-1,-4.820179567E-2,2.476666868E-2
2.653330760E-1,4.185034335E-1,-8.974587917E-2,4.181039706E-2
2.753433890E-1,4.611127377E-1,-1.121157780E-1,5.459319428E-2
2.853619300E-1,4.973306656E-1,-1.259638071E-1,5.991935730E-2
2.953883890E-1,5.420704484E-1,-1.664426625E-1,6.524552405E-2
3.054220350E-1,6.018566489E-1,-1.983996481E-1,6.844121963E-2
3.154619300E-1,6.604444981E-1,-2.069215178E-1,6.737598777E-2
3.255068780E-1,7.179670334E-1,-1.983996481E-1,5.778888986E-2
3.355555760E-1,7.850767374E-1,-1.781602204E-1,5.672365800E-2
3.456066180E-1,8.425993323E-1,-1.440727711E-1,6.524552405E-2
3.556585450E-1,8.532516360E-1,-4.926702753E-2,6.204982474E-2
3.656981280E-1,8.031857014E-1,3.595161438E-2,3.222329915E-2
3.757153160E-1,6.977276206E-1,9.666989744E-2,-1.784265228E-2
3.857325030E-1,5.635082722E-1,1.190397888E-1,-6.577813625E-2
3.957496910E-1,4.057206213E-1,5.406057462E-2,-1.105179265E-1
4.057666700E-1,2.406095117E-1,-4.926702753E-2,-1.147788614E-1
4.157837010E-1,9.147688746E-2,-2.058562785E-1,-1.147788614E-1
4.258007330E-1,-5.552527308E-2,-3.603150845E-1,-1.062569916E-1
4.358178160E-1,-1.695052087E-1,-4.721645415E-1,-8.601756394E-2
4.458348990E-1,-2.536586225E-1,-5.371437669E-1,-5.619104207E-2
4.558519830E-1,-3.047898114E-1,-5.509917736E-1,-1.784265228E-2
4.658254720E-1,-3.069202602E-1,-5.456656218E-1,2.370143496E-2
4.758025030E-1,-3.143768907E-1,-5.318176150E-1,6.950645149E-2
4.857845350E-1,-3.484643400E-1,-5.200999975E-1,1.163767055E-1
4.957727640E-1,-4.017260075E-1,-5.360785127E-1,1.547250897E-1
5.057681280E-1,-4.528571963E-1,-5.541874766E-1,1.632469594E-1
5.157711490E-1,-4.837489426E-1,-5.286219120E-1,1.536598653E-1
5.257821390E-1,-5.178363919E-1,-4.348813891E-1,1.419423074E-1
5.358023990E-1,-5.668371320E-1,-3.209014535E-1,1.259638071E-1
5.458300550E-1,-6.488600373E-1,-2.250304818E-1,6.844121963E-2
5.558644300E-1,-7.021217346E-1,-1.557903290E-1,-2.636451647E-2
5.659045870E-1,-7.212958932E-1,-8.015878499E-2,-1.307573467E-1
5.759493260E-1,-7.223611474E-1,4.340824485E-2,-1.925408691E-1
5.859973470E-1,-6.967955232E-1,3.555215299E-1,-2.287587970E-1
5.960472950E-1,-6.467295885E-1,8.051829934E-1,-2.639114857E-1
6.060978160E-1,-5.103797913E-1,1.247254729E0,-2.884118557E-1
6.161293780E-1,-3.250292242E-1,1.552976608E0,-3.086512685E-1
6.261454720E-1,-1.567224115E-1,1.554041862E0,-4.109136462E-1
6.361210450E-1,-8.535179496E-2,1.293059707E0,-5.856118798E-1
6.460998990E-1,-1.961360276E-1,7.327471375E-1,-7.487256527E-1
6.560834930E-1,-4.858794212E-1,4.021254554E-2,-7.785521746E-1
6.660729720E-1,-7.958621979E-1,-6.276885867E-1,-5.930684805E-1
6.760691700E-1,-9.662995338E-1,-1.150717974E0,-3.086512685E-1
6.860726600E-1,-9.513862729E-1,-1.261502266E0,-5.725627393E-2
6.960837010E-1,-7.852098942E-1,-1.036738038E0,5.246272683E-2
7.061022950E-1,-5.966636539E-1,-5.680354834E-1,1.707035899E-1
7.161373990E-1,-3.378120363E-1,2.063889056E-1,1.600512564E-1
7.261782850E-1,-5.459319334E-3,9.383371472E-1,8.335448056E-2
7.362227120E-1,3.695026934E-1,1.329277635E0,8.761541545E-2
7.462704720E-1,7.147713304E-1,1.299451113E0,1.472684592E-1
7.563202640E-1,1.018362761E0,9.649679661E-1,2.910749316E-1
7.663706800E-1,1.253779292E0,4.780233204E-1,4.679036140E-1
7.764047430E-1,1.369889617E0,2.210358530E-2,6.117100716E-1
7.864218780E-1,1.336867452E0,-3.198362291E-1,6.766892672E-1
7.964377640E-1,1.189865232E0,-5.222305059E-1,6.628412604E-1
8.064537010E-1,9.075785279E-1,-5.094476938E-1,5.552527308E-1
8.164697430E-1,6.146394610E-1,-4.061200917E-1,4.189028740E-1
8.264858890E-1,3.908073604E-1,-2.857487500E-1,2.175738513E-1
8.364796390E-1,1.031944528E-1,-9.853405878E-3,1.163767055E-1
8.464753680E-1,-5.019910634E-2,2.468677461E-1,-4.340824485E-2
8.564738580E-1,-6.830807030E-2,5.046541691E-1,-1.765623689E-1
8.664757850E-1,3.062544856E-3,5.973294377E-1,-2.521939278E-1
8.764816180E-1,1.319557428E-1,6.154384017E-1,-2.905423045E-1
8.864916180E-1,2.374138087E-1,6.175688505E-1,-2.479329854E-1
8.965059410E-1,3.386109471E-1,5.866770744E-1,-1.467358470E-1
9.065245350E-1,4.099815488E-1,5.685681105E-1,-2.210358530E-2
9.165471390E-1,4.153077304E-1,5.366111398E-1,9.720251709E-2
9.265733890E-1,3.300890923E-1,4.822842479E-1,1.973344237E-1
9.366028160E-1,1.916087866E-1,3.832175732E-1,2.665745616E-1
9.466347950E-1,5.099803209E-2,2.873466015E-1,3.091838956E-1
9.566685970E-1,-7.896039635E-2,2.351501882E-1,3.219666779E-1
9.666891180E-1,-1.673747450E-1,2.031932026E-1,2.942706347E-1
9.767111490E-1,-2.302234918E-1,1.765623689E-1,2.314218730E-1
9.867344300E-1,-2.632457018E-1,1.414096802E-1,1.472684592E-1
9.967586490E-1,-2.707023323E-1,9.134373069E-2,7.270215452E-2
1.006783545E0,-2.909417748E-1,3.914731368E-2,3.967992961E-2
1.016808753E0,-3.111811876E-1,-1.944050193E-2,3.222329915E-2
1.026833858E0,-3.015941083E-1,-8.548495173E-2,3.435376659E-2
1.036852139E0,-2.611152530E-1,-1.035939083E-1,3.541899845E-2
1.046869378E0,-2.163754553E-1,-8.015878499E-2,3.541899845E-2
1.056885264E0,-1.822880059E-1,-7.483261824E-2,3.435376659E-2
1.066875680E0,-1.428743750E-1,-6.204982474E-2,2.157096937E-2
1.076868233E0,-1.173087880E-1,5.193011090E-2,1.091863867E-2
1.086863805E0,-8.535179496E-2,9.027849883E-2,1.731003635E-2
1.096863128E0,-2.463351376E-2,2.213021666E-1,4.287562892E-2
1.106866774E0,9.467258304E-2,3.171731234E-1,9.400681406E-2
1.116875160E0,2.725664973E-1,3.874785006E-1,1.536598653E-1
1.126888441E0,4.376776218E-1,4.268921316E-1,2.079867423E-1
1.136906566E0,5.356790423E-1,4.535229504E-1,2.442046702E-1
1.146929274E0,5.549864173E-1,4.663057625E-1,2.687050402E-1
1.156956149E0,5.197005868E-1,4.673709869E-1,2.782921195E-1
1.166986670E0,4.366123974E-1,4.077179432E-1,2.463351339E-1
1.177020160E0,3.428718746E-1,3.544562757E-1,1.973344237E-1
1.187055837E0,2.384790480E-1,3.033251166E-1,1.568555683E-1
1.197092868E0,1.447385401E-1,2.436720580E-1,1.355509013E-1
1.207130420E0,8.615072072E-2,2.085193694E-1,1.344856620E-1
1.217119951E0,7.336792350E-2,1.691057384E-1,1.366161406E-1
1.227112191E0,9.360735118E-2,1.233007237E-1,1.525946259E-1
1.237108024E0,1.276948154E-1,1.062569916E-1,1.707035899E-1
1.247106722E0,1.511299312E-1,8.175663650E-2,1.824211627E-1
1.257110368E0,1.564560980E-1,4.873441160E-2,1.738992929E-1
1.267119274E0,1.607170254E-1,-2.663082560E-4,1.643121988E-1
1.277133597E0,1.468690038E-1,-4.926702753E-2,1.579207927E-1
1.287153233E0,1.106510833E-1,-1.174419373E-1,1.451379955E-1
1.297177868E0,7.017222792E-2,-1.930734813E-1,1.344856620E-1
1.307207035E0,1.904104091E-2,-2.580527067E-1,1.248985752E-1
1.317240108E0,-3.528584540E-2,-3.017272651E-1,1.078548431E-1
1.327276305E0,-7.789516449E-2,-3.198362291E-1,8.655018359E-2
1.337314691E0,-9.387365729E-2,-2.750964165E-1,7.909355313E-2
1.347353233E0,-7.363422960E-2,-2.079867423E-1,7.376738638E-2
1.357392139E0,-1.198387123E-3,-1.738992929E-1,6.311506033E-2
1.367419118E0,1.053249165E-1,-1.227681041E-1,5.565842614E-2
1.377436305E0,2.107829899E-1,-5.778888986E-2,4.394086078E-2
1.387453493E0,3.023930192E-1,-8.788172156E-3,2.583190054E-2
1.397470680E0,3.609808385E-1,4.873441160E-2,-7.989247679E-4
1.407487712E0,3.940030634E-1,5.086487532E-2,-3.062544949E-2
1.417504743E0,4.046553969E-1,3.994623665E-3,-4.873441160E-2
1.427521826E0,3.695026934E-1,-8.015878499E-2,-5.832150951E-2
1.437538910E0,2.768274248E-1,-1.376813650E-1,-3.914731368E-2
1.447529587E0,1.458037645E-1,-1.536598653E-1,6.657706574E-3
1.457522399E0,2.649767138E-2,-1.664426625E-1,5.459319428E-2
1.467516566E0,-6.085143611E-2,-1.675078869E-1,8.655018359E-2
1.477514587E0,-1.087869257E-1,-1.483336985E-1,1.035939083E-1
1.487517087E0,-1.300915778E-1,-1.227681041E-1,1.153114736E-1
1.497524483E0,-1.354177445E-1,-1.153114736E-1,1.217028722E-1
1.507537035E0,-1.268958896E-1,-1.472684592E-1,1.110505462E-1
1.517554691E0,-1.066564545E-1,-1.877473146E-1,9.081111848E-2
1.527577191E0,-9.280842543E-2,-2.175738513E-1,6.737598777E-2
1.537604118E0,-1.002650559E-1,-2.612484097E-1,4.500609636E-2
1.547634951E0,-1.439396143E-1,-2.974663079E-1,1.837527007E-2
1.557668962E0,-2.334191799E-1,-3.283580840E-1,-1.358172111E-2
1.567705368E0,-3.708342612E-1,-3.411408663E-1,-3.595161438E-2
1.577743285E0,-5.444672108E-1,-3.485974967E-1,-4.873441160E-2
1.587781826E0,-7.244915962E-1,-3.187709749E-1,-8.601756394E-2
1.597814847E0,-9.130378366E-1,-1.600512564E-1,-1.158440933E-1
1.607832035E0,-9.876041412E-1,-1.142462417E-1,-1.318225861E-1
1.617849222E0,-9.258206487E-1,-1.089200750E-1,-1.233007237E-1
1.627866410E0,-7.575138211E-1,-1.259638071E-1,-1.073222235E-1
1.637883597E0,-5.444672108E-1,-1.664426625E-1,-9.134373069E-2
1.647900785E0,-3.314206302E-1,-1.973344237E-1,-8.708280325E-2
1.657918024E0,-1.492657810E-1,-2.197043151E-1,-1.019960642E-1
1.667935264E0,-1.504641678E-2,-2.399437428E-1,-1.275616586E-1
1.677952503E0,7.656362653E-2,-2.719007432E-1,-1.382139921E-1
1.687969743E0,1.106510833E-1,-1.834863871E-1,-1.680405140E-1
1.697986983E0,1.085206121E-1,-9.933298081E-2,-1.946713328E-1
1.708004222E0,9.360735118E-2,-3.115806542E-2,-2.138455361E-1
1.717980055E0,7.656362653E-2,2.636451647E-2,-2.266283184E-1
1.727959170E0,6.165036187E-2,6.471290439E-2,-2.340849638E-1
1.737942972E0,5.632419512E-2,6.897383928E-2,-2.276935577E-1
1.747932608E0,6.697652489E-2,6.471290439E-2,-2.127802968E-1
1.757928962E0,1.127815470E-1,-6.657706574E-3,-1.914756298E-1
1.767932608E0,1.660431921E-1,-8.335448056E-2,-1.701709777E-1
1.777943805E0,2.065220475E-1,-1.099853069E-1,-1.541924775E-1
1.787962451E0,2.395442724E-1,-1.579207927E-1,-1.414096802E-1
1.797988180E0,2.576532364E-1,-2.452699095E-1,-1.243659556E-1
1.808020420E0,2.416747361E-1,-3.081186414E-1,-1.137136221E-1
1.818058285E0,1.692388952E-1,-3.400756419E-1,-1.094526947E-1
1.828100733E0,5.099803209E-2,-4.007939398E-1,-1.083874628E-1
1.838146566E0,-9.919982404E-2,-4.679036140E-1,-8.388710022E-2
1.848194483E0,-2.600499988E-1,-5.382089615E-1,-4.340824485E-2
1.858243180E0,-4.230306745E-1,-6.564498544E-1,-3.994623665E-3
1.868279743E0,-5.636414289E-1,-6.713631153E-1,3.967992961E-2
1.878297191E0,-6.616428494E-1,-6.372756362E-1,7.376738638E-2
1.888314430E0,-6.957303286E-1,-6.713631153E-1,9.400681406E-2
1.898331670E0,-6.573819518E-1,-6.479279995E-1,7.802832127E-2
1.908348858E0,-5.444672108E-1,-5.232957006E-1,1.517957076E-2
1.918366045E0,-3.804213405E-1,-3.581846058E-1,-5.725627393E-2
1.928383233E0,-2.035926580E-1,-1.824211627E-1,-1.137136221E-1
1.938400420E0,-6.085143611E-2,1.784265228E-2,-1.648448110E-1
1.948417503E0,-5.459319334E-3,2.330197245E-1,-2.095845938E-1
1.958393233E0,-5.019910634E-2,4.471315742E-1,-2.553896308E-1
1.968370472E0,-1.844184697E-1,6.473953724E-1,-3.118469715E-1
1.978352555E0,-3.687037826E-1,8.030525446E-1,-3.523258269E-1
1.988340680E0,-5.529890656E-1,8.914669156E-1,-3.491301239E-1
1.998335785E0,-7.660356760E-1,8.840102553E-1,-3.033251166E-1
2.008338493E0,-9.641690254E-1,8.179658055E-1,-2.149107605E-1
2.018349118E0,-1.021691680E0,6.473953724E-1,-1.115831584E-1
2.028367555E0,-8.022536039E-1,3.480648994E-1,-1.890788600E-2
2.038393441E0,-3.420729637E-1,-6.631075591E-2,7.057169080E-2
2.048426149E0,1.703041345E-1,-3.539236784E-1,1.621817350E-1
2.058463701E0,4.376776218E-1,-5.541874766E-1,2.559222281E-1
2.068504378E0,3.311543167E-1,-6.969286799E-1,3.038577139E-1
2.078548910E0,-5.765573680E-2,-6.926677823E-1,3.081186414E-1
2.088596045E0,-5.039883852E-1,-4.828168750E-1,2.580527067E-1
2.098644483E0,-8.331453800E-1,-5.033225939E-2,2.335523367E-1
2.108692920E0,-8.256887197E-1,3.150426745E-1,2.388785034E-1
2.118710628E0,-4.411396384E-1,5.866770744E-1,2.197043151E-1
2.128727816E0,2.235657871E-1,6.356778145E-1,2.505960763E-1
2.138745003E0,9.043828249E-1,4.290226102E-1,3.113143444E-1
2.148762191E0,1.319823742E0,1.818885356E-1,3.304885328E-1
2.158752191E0,1.372020125E0,9.453943372E-2,3.049229383E-1
2.168744326E0,1.141929746E0,1.201050207E-1,2.505960763E-1
2.178739535E0,7.531197667E-1,2.436720580E-1,1.866820902E-1
2.188738597E0,2.896102369E-1,2.926727831E-1,6.418029219E-2
2.198742035E0,-7.150376588E-2,3.533910513E-1,-7.430000603E-2
2.208750264E0,-2.589847744E-1,4.343487620E-1,-1.872147024E-1
2.218771930E0,-2.259625494E-1,5.270240307E-1,-2.671071887E-1
2.228797816E0,3.062544856E-3,6.133078933E-1,-3.075860441E-1
2.238827399E0,3.620460629E-1,6.697652340E-1,-3.107817471E-1
2.248860055E0,7.296846509E-1,6.473953724E-1,-2.766942680E-1
2.258895055E0,1.020493269E0,5.706986189E-1,-2.095845938E-1
2.268931566E0,1.206909060E0,4.386096895E-1,-1.296921223E-1
2.278968753E0,1.289997220E0,3.150426745E-1,-4.340824485E-2
2.289003389E0,1.260170698E0,2.926727831E-1,2.796236612E-2
2.299020576E0,1.153647423E0,1.435401440E-1,1.643121988E-1
2.309037555E0,9.608401656E-1,-1.089200750E-1,2.889444530E-1
2.319054535E0,6.785534620E-1,-2.058562785E-1,3.560541272E-1
2.329071514E0,3.801550269E-1,-2.825530469E-1,4.071853161E-1
2.339088493E0,1.575213373E-1,-3.272928596E-1,4.476641715E-1
2.349105472E0,-2.463351376E-2,-2.750964165E-1,4.604469836E-1
2.359122451E0,-1.556571722E-1,-1.600512564E-1,4.444684684E-1
2.369139483E0,-2.046578974E-1,-3.648423031E-2,4.114462435E-1
2.379156566E0,-1.972012669E-1,9.027849883E-2,4.018591642E-1
2.389173701E0,-1.194392517E-1,1.456706226E-1,3.592498302E-1
2.399190941E0,-6.524552125E-3,1.328878254E-1,3.283580840E-1
2.409208285E0,9.254211932E-2,2.956021577E-2,3.091838956E-1
2.419225680E0,1.330209672E-1,-9.826774895E-2,2.804225981E-1
2.429243128E0,8.188978583E-2,-1.983996481E-1,2.431394309E-1
2.439260576E0,-1.291595027E-2,-2.889444530E-1,2.079867423E-1
2.449278024E0,-1.577876359E-1,-2.282261699E-1,1.259638071E-1
2.459295472E0,-2.643109560E-1,-2.026605755E-1,6.098458916E-2
2.469268753E0,-2.834851444E-1,-2.058562785E-1,6.657706574E-3
2.479245576E0,-2.398105860E-1,-2.218347788E-1,-4.340824485E-2
2.489227399E0,-1.524614692E-1,-1.952039450E-1,-9.880036116E-2
2.499215420E0,-2.782921307E-2,-1.366161406E-1,-1.478010863E-1
2.509210576E0,1.255643368E-1,-7.909355313E-2,-1.893451661E-1
2.519213441E0,2.789579034E-1,-2.583190054E-2,-2.127802968E-1
2.529224326E0,4.131772518E-1,3.169068322E-2,-2.202369273E-1
2.539243128E0,5.133091807E-1,9.666989744E-2,-2.170412242E-1
2.549269483E0,5.720301270E-1,1.233007237E-1,-2.149107605E-1
2.559302712E0,5.752258301E-1,9.880036116E-2,-2.149107605E-1
2.569341878E0,5.271571875E-1,5.406057462E-2,-2.085193694E-1
2.579385889E0,4.387428463E-1,-4.926702753E-2,-2.330197245E-1
2.589433545E0,3.556546867E-1,-1.398118287E-1,-2.553896308E-1
2.599483493E0,2.725664973E-1,-1.941387206E-1,-2.596505582E-1
2.609534274E0,2.054568231E-1,-2.303566486E-1,-2.447372824E-1
2.619572920E0,1.575213373E-1,-2.527265251E-1,-2.191716880E-1
2.629590160E0,1.308905035E-1,-2.516613007E-1,-1.925408691E-1
2.639607139E0,1.095858440E-1,-2.463351339E-1,-1.712362021E-1
2.649623545E0,8.828118443E-2,-2.505960763E-1,-1.446053833E-1
2.659639951E0,6.271559745E-2,-2.015953511E-1,-1.392792165E-1
2.669615733E0,3.608476743E-2,-1.760297567E-1,-1.083874628E-1
2.679594847E0,9.453942999E-3,-2.133129090E-1,-7.003907114E-2
2.689578701E0,-9.720250964E-3,-2.782921195E-1,-2.849498391E-2
2.699568441E0,-4.806863889E-2,-3.219666779E-1,-7.989247679E-4
2.709564899E0,-8.854749799E-2,-3.507279754E-1,3.462007269E-3
2.719566983E0,-1.066564545E-1,-3.539236784E-1,1.331541222E-3
2.729576774E0,-8.428656310E-2,-3.113143444E-1,-5.059856921E-3
2.739594222E0,-4.380770773E-2,-2.079867423E-1,-1.784265228E-2
2.749619014E0,6.258244161E-3,-7.483261824E-2,-2.956021577E-2
2.759650524E0,7.336792350E-2,7.003907114E-2,-4.021254554E-2
2.769686149E0,1.724345982E-1,2.010627389E-1,-3.808208182E-2
2.779726774E0,3.066539466E-1,2.809551954E-1,-2.529928461E-2
2.789771305E0,4.547213614E-1,3.342168629E-1,-1.464695390E-2
2.799818441E0,5.869433880E-1,3.427387178E-1,-5.059856921E-3
2.809866878E0,6.881405115E-1,3.033251166E-1,1.331541222E-3
2.819915368E0,7.264889479E-1,2.255630940E-1,-7.190322969E-3
2.829933649E0,6.924014688E-1,1.126483902E-1,-3.914731368E-2
2.839950837E0,6.071828008E-1,-2.370143496E-2,-7.003907114E-2
2.849968024E0,4.834826291E-1,-1.760297567E-1,-8.814803511E-2
2.859985055E0,3.247629106E-1,-2.442046702E-1,-6.151720881E-2
2.869975316E0,1.628475040E-1,-2.612484097E-1,-3.595161438E-2
2.879967712E0,5.312849581E-2,-2.782921195E-1,-9.320789017E-3
2.889963180E0,8.388710208E-3,-2.761616707E-1,1.624480449E-2
2.899962451E0,-1.398118306E-2,-2.410089672E-1,4.926702753E-2
2.909966097E0,-4.274247587E-2,-1.824211627E-1,7.696308941E-2
2.919974483E0,-5.446003750E-2,-1.153114736E-1,1.046591476E-1
2.929987764E0,-2.356828004E-2,-7.163692266E-2,1.217028722E-1
2.940005889E0,4.034570232E-2,-5.991935730E-2,1.238333359E-1
2.950028649E0,1.127815470E-1,-5.352795869E-2,1.227681041E-1
2.960055628E0,1.479342431E-1,-3.541899845E-2,1.323551983E-1
2.970084483E0,1.138467789E-1,-6.657706574E-3,1.536598653E-1
2.980116462E0,2.543243766E-2,-1.517957076E-2,1.770949960E-1
2.990150837E0,-1.013302878E-1,-7.589785010E-2,1.707035899E-1
3.000186826E0,-3.090507388E-1,-4.820179567E-2,1.387466043E-1
3.010223597E0,-5.497934222E-1,-1.731003635E-2,1.110505462E-1
3.020260368E0,-7.713618875E-1,1.358172111E-2,9.294158220E-2
3.030278285E0,-9.396686554E-1,7.536523789E-2,8.974587917E-2
3.040296201E0,-1.005713105E0,1.296921223E-1,7.483261824E-2
3.050312660E0,-9.780170918E-1,2.468677461E-1,3.115806542E-2
3.060329170E0,-8.746894598E-1,3.320863843E-1,-1.358172111E-2
3.070302503E0,-7.255568504E-1,3.544562757E-1,-4.766917601E-2
3.080279378E0,-5.679023266E-1,3.576519787E-1,-6.684337556E-2
3.090261305E0,-4.240958989E-1,3.427387178E-1,-7.749570161E-2
3.100249430E0,-2.888112962E-1,2.905423045E-1,-8.069140464E-2
3.110244691E0,-1.663095057E-1,2.362154275E-1,-8.388710022E-2
3.120247660E0,-7.789516449E-2,1.989322603E-1,-9.347419441E-2
3.130258649E0,-4.167724028E-2,1.648448110E-1,-9.666989744E-2
3.140277503E0,-4.913387448E-2,1.328878254E-1,-1.062569916E-1
3.150303910E0,-7.896039635E-2,8.921326697E-2,-1.211702600E-1
3.160337191E0,-1.109173894E-1,2.742975019E-2,-1.403444558E-1
3.170376462E0,-1.386134475E-1,-4.394086078E-2,-1.499315500E-1
3.180420524E0,-1.620485783E-1,-1.153114736E-1,-1.467358470E-1
3.190468180E0,-1.705704331E-1,-1.792254597E-1,-1.360835135E-1
3.200518024E0,-1.567224115E-1,-2.516613007E-1,-1.137136221E-1
3.210568701E0,-1.279611140E-1,-2.772268951E-1,-1.041265279E-1
3.220605420E0,-1.045259908E-1,-2.697702646E-1,-8.814803511E-2
3.230622868E0,-8.215609938E-2,-2.580527067E-1,-7.216953486E-2
3.240639847E0,-7.896039635E-2,-2.165086120E-1,-5.938674137E-2
3.250656826E0,-1.386134475E-1,-1.611164957E-1,-4.340824485E-2
3.260673858E0,-2.504629195E-1,-1.408770680E-1,-3.382114694E-2
3.270690941E0,-3.740299344E-1,-1.344856620E-1,-3.062544949E-2
3.280708076E0,-4.933360517E-1,-1.163767055E-1,-3.169068322E-2
3.290725212E0,-6.115769148E-1,-9.933298081E-2,-2.210358530E-2
3.300742347E0,-7.117088437E-1,-1.462032348E-1,2.663082560E-4
3.310759483E0,-7.639052272E-1,-2.474003732E-1,2.689713426E-2
3.320776670E0,-7.479267120E-1,-3.272928596E-1,7.376738638E-2
3.330793858E0,-6.531209946E-1,-4.167724252E-1,1.025286764E-1
3.340811045E0,-5.370106101E-1,-5.296871066E-1,7.057169080E-2
3.350828285E0,-4.528571963E-1,-5.531222224E-1,2.663082560E-4
3.360845576E0,-4.219654202E-1,-4.444684684E-1,-8.601756394E-2
3.370862920E0,-4.411396384E-1,-2.804225981E-1,-1.435401440E-1
3.380839691E0,-4.922707975E-1,-7.376738638E-2,-1.723014414E-1
3.390819743E0,-5.838808417E-1,8.175663650E-2,-1.765623689E-1
3.400804430E0,-6.701647043E-1,1.808233112E-1,-1.563229412E-1
3.410794847E0,-7.479267120E-1,2.394111156E-1,-1.307573467E-1
3.420791826E0,-7.926664948E-1,3.576519787E-1,-1.201050207E-1
3.430795941E0,-7.394048572E-1,4.535229504E-1,-1.723014414E-1
3.440807399E0,-5.966636539E-1,5.685681105E-1,-2.532591522E-1
3.450826149E0,-3.750951886E-1,6.090469956E-1,-3.331516385E-1
3.460851878E0,-1.556571722E-1,6.805507541E-1,-3.960003853E-1
3.470883962E0,7.549838722E-2,5.515244007E-1,-4.471315742E-1
3.480920420E0,1.958697289E-1,2.106498331E-1,-4.918713570E-1
3.490961410E0,9.147688746E-2,-9.720251709E-2,-4.961322844E-1
3.501005837E0,-3.591166735E-1,-3.272928596E-1,-4.993279874E-1
3.511052451E0,-1.056844354E0,-5.765573978E-1,-4.481967986E-1
3.521100003E0,-1.722615004E0,-8.449960947E-1,-3.065207899E-1
3.531139951E0,-2.070946217E0,-9.738892913E-1,-4.127778113E-2
3.541156930E0,-1.853638649E0,-7.384728193E-1,2.431394309E-1
3.551173962E0,-1.066431403E0,-4.348813891E-1,4.050548673E-1
3.561191045E0,-1.247654185E-1,-2.559222281E-1,4.764254689E-1
3.571208128E0,5.975957513E-1,-1.217028722E-1,4.987953603E-1
3.581198858E0,9.118394852E-1,2.742975019E-2,4.753602445E-1
3.591191722E0,9.256874919E-1,1.872147024E-1,3.912068307E-1
3.601187660E0,8.063814044E-1,3.672390878E-1,2.569874525E-1
3.611187347E0,6.732272506E-1,6.196992993E-1,9.826774895E-2
3.621191305E0,5.901390910E-1,9.127715230E-1,-6.577813625E-2
3.631199899E0,5.869433880E-1,1.132209539E0,-2.031932026E-1
3.641213285E0,6.306179762E-1,1.191862583E0,-2.809551954E-1
3.651231462E0,6.849448085E-1,1.048056126E0,-2.777595222E-1
3.661254170E0,7.318150997E-1,7.977263927E-1,-1.914756298E-1
3.671281045E0,7.829462886E-1,5.451329947E-1,-4.660394415E-2
3.681311566E0,8.521864414E-1,3.491301239E-1,1.195724085E-1
3.691345003E0,9.139699340E-1,1.392792165E-1,2.772268951E-1
3.701380628E0,9.118394852E-1,-2.005301118E-1,3.741630912E-1
3.711417555E0,8.617734909E-1,-3.784240186E-1,4.157072008E-1
3.721454951E0,7.733591795E-1,-4.380770922E-1,4.125114977E-1
3.731484743E0,6.753577590E-1,-3.816197217E-1,3.816197217E-1
3.741501670E0,5.635082722E-1,-1.717688292E-1,3.198362291E-1
3.751518597E0,4.664389193E-1,8.388710022E-2,2.271609455E-1
3.761535524E0,4.025249183E-1,3.086512685E-1,1.323551983E-1
3.771552503E0,3.599156141E-1,4.780233204E-1,5.139749497E-2
3.781569587E0,3.151758313E-1,5.781552196E-1,-7.190322969E-3
3.791586722E0,2.757622004E-1,6.069164872E-1,-2.423405088E-2
3.801603910E0,2.533923090E-1,5.632419586E-1,6.657706574E-3
3.811621149E0,2.565880120E-1,4.045222402E-1,6.524552405E-2
3.821638441E0,2.629793882E-1,1.659100503E-1,1.579207927E-1
3.831655785E0,2.683055699E-1,-1.525946259E-1,2.729659677E-1
3.841673128E0,2.683055699E-1,-4.955996573E-1,3.677717149E-1
3.851690472E0,2.533923090E-1,-7.246247530E-1,4.327509105E-1
3.861707816E0,2.470009029E-1,-8.322132826E-1,4.700340629E-1
3.871725160E0,2.086525112E-1,-7.331466079E-1,4.391423166E-1
3.881742503E0,1.777607650E-1,-5.531222224E-1,3.752283454E-1
3.891759847E0,1.117163152E-1,-2.420742065E-1,2.431394309E-1
3.901777191E0,3.608476743E-2,5.086487532E-2,1.025286764E-1
3.911794535E0,2.862813696E-2,2.830856740E-1,-3.382114694E-2
3.921811878E0,9.041165560E-2,4.396749437E-1,-1.350182891E-1
3.931829222E0,1.596518010E-1,5.344806910E-1,-1.904104054E-1
3.941846462E0,1.916087866E-1,5.728290677E-1,-2.063889056E-1
3.951863701E0,1.926740259E-1,5.706986189E-1,-1.904104054E-1
3.961880941E0,1.958697289E-1,5.142412186E-1,-1.499315500E-1
3.971898180E0,2.129134536E-1,3.917394578E-1,-8.282186836E-2
3.981915420E0,2.171743810E-1,2.031932026E-1,-9.320789017E-3
3.991932712E0,1.926740259E-1,2.636451647E-2,5.778888986E-2
4.001949951E0,1.596518010E-1,-6.844121963E-2,1.078548431E-1
4.011967191E0,1.436733007E-1,-1.217028722E-1,1.227681041E-1
4.021984430E0,1.436733007E-1,-9.933298081E-2,1.195724085E-1
4.032001722E0,1.745650619E-1,-2.689713426E-2,1.153114736E-1
4.042019014E0,2.193048447E-1,6.577813625E-2,1.110505462E-1
4.052036149E0,2.619141638E-1,1.179745570E-1,1.003982127E-1
4.062053285E0,2.960016131E-1,1.275616586E-1,7.696308941E-2
4.072070420E0,2.917406857E-1,4.873441160E-2,4.181039706E-2
4.082087555E0,2.555227578E-1,-9.720251709E-2,2.157096937E-2
4.092078389E0,1.916087866E-1,-2.729659677E-1,2.370143496E-2
4.102071358E0,1.244991124E-1,-4.359466136E-1,3.541899845E-2
4.112067295E0,7.336792350E-2,-5.403394699E-1,4.607132822E-2
4.122066930E0,6.271559745E-2,-5.829487443E-1,5.565842614E-2
4.132070889E0,1.010639817E-1,-6.170362234E-1,5.139749497E-2
4.142079483E0,1.745650619E-1,-6.234276295E-1,3.115806542E-2
4.152092868E0,2.544575334E-1,-5.861444473E-1,1.331541222E-3
4.162111045E0,3.311543167E-1,-4.987953603E-1,-2.742975019E-2
4.172133753E0,4.035901725E-1,-3.485974967E-1,-7.003907114E-2
4.182160628E0,5.282224417E-1,-2.133129090E-1,-1.105179265E-1
4.192189326E0,6.817491055E-1,-4.074516147E-2,-1.627143472E-1
4.202221149E0,8.170337081E-1,7.962616533E-2,-1.999974996E-1
4.212255368E0,9.331441522E-1,1.211702600E-1,-2.181064636E-1
4.222291149E0,1.027949810E0,7.962616533E-2,-2.159759998E-1
4.232327712E0,1.060972095E0,-7.270215452E-2,-2.021279633E-1
4.242363753E0,9.970580935E-1,-2.697702646E-1,-2.287587970E-1
4.252380993E0,8.543168902E-1,-3.741630912E-1,-2.479329854E-1
4.262398233E0,6.732272506E-1,-3.304885328E-1,-2.255630940E-1
4.272415472E0,4.238295853E-1,-2.591179311E-1,-1.616491079E-1
4.282432712E0,1.404775977E-1,-2.271609455E-1,-7.856093347E-2
4.292423285E0,-1.300915778E-1,-1.888125539E-1,-2.103835158E-2
4.302415993E0,-3.282249272E-1,-1.121157780E-1,-5.059856921E-3
4.312411774E0,-4.251611233E-1,-2.050573565E-2,2.663082560E-4
4.322411305E0,-4.059869349E-1,7.323476672E-2,1.091863867E-2
4.332415160E0,-3.047898114E-1,1.627143472E-1,2.157096937E-2
4.342423701E0,-1.503310055E-1,2.884118557E-1,3.967992961E-2
4.352437087E0,3.608476743E-2,3.576519787E-1,6.950645149E-2
4.362455264E0,1.713693589E-1,3.459344208E-1,1.121157780E-1
4.372478024E0,1.969349533E-1,3.416734934E-1,1.728340536E-1
4.382504951E0,1.223686412E-1,3.459344208E-1,2.378132790E-1
4.392535472E0,-2.569874749E-2,3.043903410E-1,3.123795986E-1
4.402568910E0,-2.355496585E-1,2.074541301E-1,3.656412363E-1
4.412604483E0,-5.093145370E-1,1.190397888E-1,3.880111277E-1
4.422641410E0,-8.118407130E-1,2.423405088E-2,3.603150845E-1
4.432678910E0,-1.070692301E0,-8.788172156E-3,3.230319023E-1
4.442708649E0,-1.217694521E0,4.127778113E-2,3.049229383E-1
4.452726149E0,-1.219824910E0,7.856093347E-2,2.985315621E-1
4.462743649E0,-1.088801265E0,1.030612960E-1,2.804225981E-1
4.472760368E0,-8.800156116E-1,1.147788614E-1,2.420742065E-1
4.482777087E0,-6.488600373E-1,1.158440933E-1,1.983996481E-1
4.492793858E0,-4.336830080E-1,1.094526947E-1,1.579207927E-1
4.502810680E0,-2.579195499E-1,7.003907114E-2,1.238333359E-1
4.512827608E0,-1.183740199E-1,3.169068322E-2,9.933298081E-2
4.522844587E0,-8.655018173E-3,-9.853405878E-3,7.057169080E-2
4.532861670E0,5.632419512E-2,-6.631075591E-2,4.074516147E-2
4.542878805E0,1.106510833E-1,-1.440727711E-1,1.411433797E-2
4.552895993E0,1.585865617E-1,-1.003982127E-1,-2.956021577E-2
4.562913285E0,2.022611201E-1,-7.589785010E-2,-7.536523789E-2
4.572930628E0,2.491313666E-1,-4.181039706E-2,-1.115831584E-1
4.582948024E0,2.800231278E-1,-2.663082560E-4,-1.435401440E-1
4.592965472E0,2.715012729E-1,3.595161438E-2,-1.754971445E-1
4.602983024E0,2.256962508E-1,3.595161438E-2,-2.159759998E-1
4.613000576E0,1.532603949E-1,3.169068322E-2,-2.703028917E-1
4.623018128E0,7.230269164E-2,2.529928461E-2,-3.246297538E-1
4.633035680E0,-1.331541280E-4,-6.657706574E-3,-3.597824574E-1
4.643053233E0,-6.404713541E-2,-3.222329915E-2,-3.715000153E-1
4.653070837E0,-1.268958896E-1,-3.435376659E-2,-3.597824574E-1
4.663088076E0,-1.854836941E-1,-5.246272683E-2,-3.235645294E-1
4.673105316E0,-2.089188248E-1,-6.311506033E-2,-2.820204496E-1
4.683122555E0,-2.749632597E-1,-9.294158220E-2,-2.500634491E-1
4.693139847E0,-3.633776009E-1,-1.472684592E-1,-2.276935577E-1
4.703157191E0,-5.252930522E-1,-2.761616707E-1,-2.319544852E-1
4.713147399E0,-6.925346255E-1,-4.231638312E-1,-2.340849638E-1
4.723139795E0,-7.862751484E-1,-5.861444473E-1,-2.095845938E-1
4.733135264E0,-7.617747784E-1,-7.171681523E-1,-1.499315500E-1
4.743134535E0,-6.850779653E-1,-7.523208261E-1,-8.282186836E-2
4.753138180E0,-5.849460959E-1,-6.681674123E-1,-7.190322969E-3
4.763146566E0,-4.549876451E-1,-5.957315564E-1,5.778888986E-2
4.773159899E0,-3.271597028E-1,-4.966649115E-1,9.826774895E-2
4.783178076E0,-2.568543255E-1,-3.997286856E-1,7.802832127E-2
4.793200889E0,-2.792242169E-1,-2.995967865E-1,1.411433797E-2
4.803226774E0,-3.942693770E-1,-2.495308369E-1,-4.766917601E-2
4.813256462E0,-6.019898057E-1,-1.675078869E-1,-8.708280325E-2
4.823289274E0,-8.086450100E-1,-6.311506033E-2,-1.616491079E-1
4.833324430E0,-9.300816059E-1,8.814803511E-2,-2.884118557E-1
4.843361097E0,-9.428643584E-1,3.054555655E-1,-4.205007255E-1
4.853398441E0,-8.182321191E-1,5.014584661E-1,-4.897408783E-1
4.863433337E0,-5.849460959E-1,5.941337347E-1,-4.631100595E-1
4.873451670E0,-3.463338912E-1,5.738942623E-1,-3.587172329E-1
4.883468910E0,-2.206363827E-1,4.215659797E-1,-2.394111156E-1
4.893485160E0,-2.888112962E-1,1.350182891E-1,-1.541924775E-1
4.903475368E0,-4.496614933E-1,-1.632469594E-1,-8.282186836E-2
4.913467764E0,-5.295539498E-1,-3.997286856E-1,7.722939365E-3
4.923463180E0,-4.677704573E-1,-6.734935641E-1,8.761541545E-2
4.933462451E0,-2.664414048E-1,-8.684312105E-1,1.451379955E-1
4.943466097E0,-8.428656310E-2,-1.042064190E0,1.760297567E-1
4.953474483E0,-6.524552125E-3,-1.027150989E0,1.802906841E-1
4.963486670E0,8.388710208E-3,-7.800168991E-1,1.643121988E-1
4.973502139E0,-3.102491237E-2,-3.954677582E-1,1.270290315E-1
4.983522503E0,-7.682993263E-2,4.340824485E-2,7.696308941E-2
4.993547451E0,-6.937330216E-2,4.066527188E-1,3.754946589E-2
5.003575420E0,1.264964230E-2,6.228950024E-1,3.328853101E-2
5.013606930E0,8.402025700E-2,6.548519731E-1,4.926702753E-2
5.023641253E0,1.447385401E-1,5.802856684E-1,6.737598777E-2
5.033677608E0,2.448704392E-1,4.726971686E-1,1.099853069E-1
5.043715108E0,3.663070202E-1,3.384777904E-1,1.824211627E-1
5.053752920E0,4.952002168E-1,1.968017966E-1,2.772268951E-1
