"Time (s)","Gyroscope x (rad/s)","Gyroscope y (rad/s)","Gyroscope z (rad/s)"
1.237295500E-1,-1.410501719E0,-7.057169080E-2,-3.704347908E-1
1.337785080E-1,-1.341261506E0,-7.722939365E-3,-3.523258269E-1
1.438313730E-1,-1.004647851E0,8.495233208E-2,-3.086512685E-1
1.538865290E-1,-4.038564563E-1,2.617810071E-1,-2.809551954E-1
1.639424140E-1,3.567199111E-1,4.471315742E-1,-2.724333405E-1
1.739769980E-1,1.142995000E0,5.472634435E-1,-3.011946380E-1
1.839941850E-1,1.728873253E0,6.537867785E-1,-3.469996452E-1
1.940113730E-1,2.034595013E0,6.058512926E-1,-3.800218701E-1
2.040286120E-1,2.060160637E0,4.396749437E-1,-4.034570158E-1
2.140458520E-1,1.821548462E0,2.458025217E-1,-4.236964285E-1
2.240631440E-1,1.375215888E0,9.666989744E-2,-4.258269072E-1
2.340804870E-1,8.276860714E-1,1.062569916E-1,-4.460663199E-1
2.440978310E-1,2.789579034E-1,2.734985650E-1,-4.737623930E-1
2.541152270E-1,-9.813459218E-2,3.256950080E-1,-4.673709869E-1
2.641326230E-1,-2.952027023E-1,4.844147265E-1,-3.374125659E-1
2.741500710E-1,-3.473991156E-1,4.322183132E-1,-2.085193694E-1
2.841675710E-1,-3.484643400E-1,3.565867543E-1,-6.577813625E-2
2.941851230E-1,-2.632457018E-1,3.161078990E-1,9.933298081E-2
3.042027270E-1,-1.471353173E-1,2.106498331E-1,2.165086120E-1
3.141793420E-1,-4.061200842E-2,1.669752747E-1,3.315537870E-1
3.241592890E-1,1.997311832E-3,1.797580719E-1,4.135767221E-1
3.341439250E-1,4.127778113E-3,2.564548552E-1,4.412727654E-1
3.441343420E-1,-2.250304818E-2,3.374125659E-1,4.125114977E-1
3.541314250E-1,-3.102491237E-2,3.565867543E-1,3.752283454E-1
3.641356960E-1,1.904104091E-2,3.512606025E-1,3.517931998E-1
3.741474140E-1,1.298252791E-1,2.617810071E-1,3.464670479E-1
3.841664770E-1,2.597837150E-1,7.003907114E-2,3.645760119E-1
3.941925190E-1,3.545894325E-1,-1.483336985E-1,4.167724252E-1
4.042249670E-1,3.961335421E-1,-3.603150845E-1,4.710993171E-1
4.142618420E-1,3.641765416E-1,-5.382089615E-1,4.785559475E-1
4.243033000E-1,2.235657871E-1,-6.404713392E-1,4.476641715E-1
4.343481960E-1,-2.676397935E-2,-6.671021581E-1,3.741630912E-1
4.443952790E-1,-2.866808474E-1,-5.446003675E-1,2.346175760E-1
4.544433000E-1,-4.379439354E-1,-2.207695395E-1,4.287562892E-2
4.644835600E-1,-4.901403487E-1,-7.802832127E-2,-1.403444558E-1
4.745010080E-1,-3.665733039E-1,6.258244067E-2,-2.948032320E-1
4.845182480E-1,-1.151783243E-1,6.577813625E-2,-3.896089792E-1
4.945354870E-1,9.893351793E-2,1.158440933E-1,-4.769580960E-1
5.045527270E-1,1.596518010E-1,5.619104207E-2,-6.101121902E-1
5.145439250E-1,-6.298190355E-2,1.360835135E-1,-7.262226343E-1
5.245354350E-1,-6.754909158E-1,2.202369273E-1,-7.593780160E-1
5.345300710E-1,-1.676809907E0,2.468677461E-1,-6.612433791E-1
5.445286120E-1,-2.718607903E0,9.240896255E-2,-4.332835376E-1
5.545316850E-1,-3.347095251E0,-2.974663079E-1,-2.074541301E-1
5.645396540E-1,-3.416335344E0,-7.363423109E-1,1.837527007E-2
5.745527270E-1,-2.980655193E0,-9.856068492E-1,1.600512564E-1
5.845708520E-1,-2.353232861E0,-1.086804032E0,3.826849759E-1
5.945938210E-1,-1.954835773E0,-1.290263534E0,6.085143685E-1
6.046212690E-1,-1.903704524E0,-1.288133025E0,5.637745857E-1
6.146525710E-1,-2.052837133E0,-1.046325088E0,3.422061205E-1
6.246869980E-1,-2.132729769E0,-7.576469779E-1,6.737598777E-2
6.347237690E-1,-2.063489437E0,-2.633788586E-1,-1.616491079E-1
6.447619980E-1,-1.895182729E0,2.894770801E-1,-2.958684862E-1
6.548008520E-1,-1.695984125E0,7.444647551E-1,-3.651086092E-1
6.648329350E-1,-1.505307436E0,9.681636691E-1,-3.459344208E-1
6.748501750E-1,-1.298652172E0,8.935973644E-1,-2.330197245E-1
6.848674140E-1,-1.067496657E0,5.483286977E-1,-7.749570161E-2
6.948846540E-1,-8.107754588E-1,6.364767253E-2,7.483261824E-2
7.049018940E-1,-6.105116606E-1,-4.135767221E-1,2.197043151E-1
7.149191330E-1,-5.306192040E-1,-7.917344570E-1,3.443365693E-1
7.249364250E-1,-5.327496529E-1,-9.898678064E-1,3.975982368E-1
7.349537690E-1,-5.540543199E-1,-9.153015018E-1,3.571193814E-1
7.449711640E-1,-5.881417990E-1,-5.829487443E-1,2.548570037E-1
7.549886120E-1,-6.318163276E-1,-1.248985752E-1,1.291595101E-1
7.649806960E-1,-6.403381824E-1,2.937380075E-1,1.198387146E-2
7.749748620E-1,-6.030550599E-1,4.822842479E-1,-1.009308323E-1
7.849719460E-1,-5.199668407E-1,5.025236607E-1,-1.797580719E-1
7.949726230E-1,-3.814865649E-1,3.704347908E-1,-1.861494780E-1
8.049774670E-1,-8.854749799E-2,4.021254554E-2,-1.179745570E-1
8.149867890E-1,3.513937294E-1,-1.813559234E-1,1.624480449E-2
8.250007480E-1,8.298165202E-1,-4.061200917E-1,1.664426625E-1
8.350192890E-1,1.233539820E0,-6.244928837E-1,3.049229383E-1
8.450422580E-1,1.464695454E0,-7.746906877E-1,4.263595045E-1
8.550692370E-1,1.501978517E0,-8.162348270E-1,5.073172450E-1
8.650996540E-1,1.408238053E0,-7.118419409E-1,5.222305059E-1
8.751328310E-1,1.279344916E0,-4.785559475E-1,4.423380196E-1
8.851680390E-1,1.163234472E0,-1.770949960E-1,3.017272651E-1
8.952044980E-1,1.087602973E0,9.773512930E-2,1.270290315E-1
9.052413730E-1,9.597749710E-1,4.236964285E-1,5.592473317E-3
9.152705920E-1,8.809477091E-1,5.909380317E-1,-1.350182891E-1
9.252453830E-1,9.448617101E-1,6.933335662E-1,-2.362154275E-1
9.352235080E-1,1.080146313E0,7.103772759E-1,-2.777595222E-1
9.452064250E-1,1.264431596E0,5.898727775E-1,-3.278254569E-1
9.551953310E-1,1.363498211E0,5.131760240E-1,-3.704347908E-1
9.651911120E-1,1.486000061E0,5.270240307E-1,-2.330197245E-1
9.751943940E-1,1.655372143E0,4.545882046E-1,-6.790860742E-2
9.852054350E-1,1.770417333E0,4.503272474E-1,5.033225939E-2
9.952241850E-1,1.802374244E0,4.641752839E-1,1.099853069E-1
1.005250331E0,1.729938388E0,4.087831676E-1,1.408770680E-1
1.015282102E0,1.586131930E0,4.354139864E-1,1.834863871E-1
1.025317987E0,1.348585010E0,5.355458856E-1,2.314218730E-1
1.035358873E0,1.121690392E0,5.387415886E-1,2.186390758E-1
1.045403612E0,7.669677734E-1,6.047860384E-1,2.985315621E-1
1.055451008E0,3.758940995E-1,7.050511241E-1,2.942706347E-1
1.065499706E0,9.041165560E-2,7.828131318E-1,1.792254597E-1
1.075548456E0,-8.854749799E-2,7.689650655E-1,5.033225939E-2
1.085566894E0,-1.929403245E-1,5.717638135E-1,-5.512581021E-2
1.095585331E0,-2.344844192E-1,1.765623689E-1,-1.999974996E-1
1.105601842E0,-2.366148829E-1,-3.336842358E-1,-2.916075289E-1
1.115618352E0,-2.632457018E-1,-7.810820937E-1,-3.267602324E-1
1.125609810E0,-4.081174135E-1,-1.174153090E0,-3.608476818E-1
1.135603352E0,-7.021217346E-1,-1.471353173E0,-3.651086092E-1
1.145599914E0,-1.066431403E0,-1.538462758E0,-3.523258269E-1
1.155600175E0,-1.379609942E0,-1.448983192E0,-3.704347908E-1
1.165604654E0,-1.526612043E0,-1.205044866E0,-3.885437548E-1
1.175613717E0,-1.473350406E0,-8.290175796E-1,-3.778914213E-1
1.185627571E0,-1.196389794E0,-3.933372796E-1,-3.150426745E-1
1.195646112E0,-7.031869292E-1,-4.527240526E-3,-2.106498331E-1
1.205669133E0,-8.322133124E-2,2.756290436E-1,-1.126483902E-1
1.215696217E0,5.645735264E-1,4.737623930E-1,-3.382114694E-2
1.225725748E0,1.123820782E0,6.378082633E-1,4.394086078E-2
1.235758196E0,1.603175759E0,6.207645535E-1,1.728340536E-1
1.245792831E0,1.900375724E0,6.463301182E-1,2.260957062E-1
1.255828925E0,1.914223790E0,6.569824815E-1,2.292914093E-1
1.265854237E0,1.628741264E0,7.114425302E-1,2.122476846E-1
1.275880331E0,1.146190763E0,7.721607685E-1,1.568555683E-1
1.285906789E0,5.516575575E-1,8.382052183E-1,6.098458916E-2
1.295933248E0,-3.954677656E-2,7.487256527E-1,-7.190322969E-3
1.305951373E0,-5.679023266E-1,6.665695906E-1,-5.406057462E-2
1.315968612E0,-9.652342796E-1,5.387415886E-1,-5.725627393E-2
1.325985904E0,-1.160171866E0,3.161078990E-1,-1.145125460E-2
1.336003248E0,-1.160171866E0,8.388710022E-2,4.394086078E-2
1.346020592E0,-9.673647285E-1,-9.187635034E-2,1.078548431E-1
1.356037987E0,-6.350120306E-1,-2.026605755E-1,1.834863871E-1
1.366055435E0,-2.493976802E-1,-2.175738513E-1,2.442046702E-1
1.376072935E0,9.786828607E-2,-1.717688292E-1,2.729659677E-1
1.386090435E0,3.481980562E-1,-8.548495173E-2,2.548570037E-1
1.396107987E0,4.909392595E-1,2.210358530E-2,2.271609455E-1
1.406125539E0,5.560516119E-1,1.105179265E-1,2.122476846E-1
1.416143092E0,5.581821203E-1,1.701709777E-1,2.026605755E-1
1.426160696E0,5.303528905E-1,2.138455361E-1,1.920082569E-1
1.436178300E0,5.143743753E-1,2.649767101E-1,1.973344237E-1
1.446195904E0,5.133091807E-1,2.127802968E-1,2.079867423E-1
1.456213508E0,4.941349626E-1,4.766917601E-2,2.143781483E-1
1.466231008E0,4.025249183E-1,-7.270215452E-2,1.909430176E-1
1.476248508E0,2.885449827E-1,-1.472684592E-1,1.398118287E-1
1.486265956E0,2.171743810E-1,-2.537917793E-1,8.122401685E-2
1.496283404E0,1.649779677E-1,-3.155752718E-1,-5.059856921E-3
1.506300852E0,7.443315536E-2,-2.431394309E-1,-1.382139921E-1
1.516273769E0,-6.724283099E-2,-1.248985752E-1,-3.065207899E-1
1.526250279E0,-2.834851444E-1,1.946713328E-1,-4.588491321E-1
1.536231894E0,-5.955983996E-1,4.684362113E-1,-5.685681105E-1
1.546219758E0,-9.364729524E-1,5.877423286E-1,-6.186341047E-1
1.556214810E0,-1.263499498E0,4.098483920E-1,-6.239602566E-1
1.566217675E0,-1.523416400E0,3.169068322E-2,-6.420692205E-1
1.576228612E0,-1.658700943E0,-5.616441369E-1,-6.239602566E-1
1.586247571E0,-1.573482275E0,-1.428743839E0,-4.865451753E-1
1.596274185E0,-1.205976963E0,-2.101971149E0,-1.914756298E-1
1.606307779E0,-7.468615174E-1,-2.043383360E0,3.115806542E-2
1.616347414E0,-5.774894357E-1,-1.542723775E0,1.280942708E-1
1.626391946E0,-8.395367861E-1,-9.589760303E-1,1.238333359E-1
1.636440123E0,-1.349783421E0,-4.316856861E-1,-3.994623665E-3
1.646490539E0,-1.906900287E0,9.453943372E-2,-1.882799417E-1
1.656541842E0,-2.192382812E0,5.323501825E-1,-4.609795809E-1
1.666580592E0,-2.249905348E0,8.222267628E-1,-6.814828515E-1
1.676598092E0,-2.229665756E0,1.005446792E0,-8.094439507E-1
1.686615331E0,-2.122077227E0,9.884030819E-1,-8.509880304E-1
1.696632571E0,-1.845116735E0,4.993279874E-1,-7.881392837E-1
1.706649810E0,-1.511698842E0,1.765623689E-1,-4.929365814E-1
1.716667102E0,-9.407339096E-1,-1.174419373E-1,-2.423405088E-2
1.726684446E0,-2.248973250E-1,-6.138405204E-1,3.560541272E-1
1.736661321E0,3.226324618E-1,-9.568455815E-1,6.223623753E-1
1.746641477E0,5.645735264E-1,-1.127282858E0,8.002563119E-1
1.756626269E0,5.698996782E-1,-1.084673524E0,8.737573624E-1
1.766615175E0,4.419385493E-1,-7.608426809E-1,8.758878708E-1
1.776610800E0,3.726983964E-1,-3.102491200E-1,7.842777967E-1
1.786613821E0,4.738955498E-1,1.094526947E-1,5.882749557E-1
1.796624446E0,6.689663529E-1,4.418053925E-1,3.912068307E-1
1.806642623E0,8.979914188E-1,6.623086333E-1,1.983996481E-1
1.816668039E0,1.115298986E0,7.838783264E-1,4.926702753E-2
1.826700071E0,1.300649524E0,7.732260227E-1,-5.512581021E-2
1.836736842E0,1.446586490E0,5.994598866E-1,-1.350182891E-1
1.846778456E0,1.564827323E0,3.203688264E-1,-1.680405140E-1
1.856823769E0,1.669220090E0,-7.722939365E-3,-1.318225861E-1
1.866871477E0,1.787461042E0,-3.304885328E-1,-6.471290439E-2
1.876920279E0,1.879070997E0,-5.967968106E-1,-7.989247679E-4
1.886966425E0,1.848179340E0,-7.800168991E-1,5.139749497E-2
1.896982467E0,1.666024446E0,-8.908011317E-1,8.655018359E-2
1.906998612E0,1.397585750E0,-9.142362475E-1,1.057243794E-1
1.917014862E0,1.087602973E0,-7.736254930E-1,9.613727778E-2
1.927031269E0,7.318150997E-1,-6.159709692E-1,6.737598777E-2
1.937025696E0,4.206338823E-1,-4.391423166E-1,5.592473317E-3
1.947022102E0,1.127815470E-1,-1.525946259E-1,1.198387146E-2
1.957021269E0,-1.375482082E-1,1.957365721E-1,4.394086078E-2
1.967023821E0,-2.643109560E-1,4.279573560E-1,9.720251709E-2
1.977030227E0,-2.568543255E-1,5.259587765E-1,1.632469594E-1
1.987040748E0,-1.237001866E-1,5.206326246E-1,2.324871123E-1
1.997055487E0,9.360735118E-2,5.089150667E-1,2.942706347E-1
2.007074394E0,3.183715343E-1,4.695014656E-1,3.507279754E-1
2.017095435E0,4.898740351E-1,3.917394578E-1,3.858806491E-1
2.027120175E0,6.050523520E-1,2.926727831E-1,3.965329826E-1
2.037148248E0,6.359441280E-1,1.797580719E-1,3.826849759E-1
2.047179081E0,5.175700784E-1,4.766917601E-2,3.464670479E-1
2.057210904E0,2.193048447E-1,-7.696308941E-2,3.027924895E-1
2.067244185E0,-2.014621943E-1,-1.238333359E-1,2.591179311E-1
2.077278248E0,-6.137073636E-1,-1.195724085E-1,1.962691844E-1
2.087312362E0,-8.768199086E-1,-5.459319428E-2,1.312899739E-1
2.097332154E0,-9.087769389E-1,-4.394086078E-2,7.057169080E-2
2.107351008E0,-6.552514434E-1,-3.541899845E-2,1.731003635E-2
2.117367362E0,-1.641790420E-1,-7.722939365E-3,-4.234301299E-2
2.127383717E0,4.355471432E-1,6.045197323E-2,-1.041265279E-1
2.137400123E0,1.001319051E0,1.105179265E-1,-1.446053833E-1
2.147416633E0,1.450847387E0,1.254311949E-1,-1.446053833E-1
2.157433300E0,1.750177860E0,1.307573467E-1,-1.233007237E-1
2.167450175E0,1.872679710E0,1.616491079E-1,-1.158440933E-1
2.177467206E0,1.807700396E0,1.637795717E-1,-1.211702600E-1
2.187484446E0,1.519022346E0,3.033251166E-1,-1.765623689E-1
2.197501946E0,1.042863131E0,3.565867543E-1,-2.138455361E-1
2.207519654E0,4.504604042E-1,4.119788706E-1,-2.703028917E-1
2.217537519E0,-1.524614692E-1,4.300878346E-1,-3.086512685E-1
2.227555539E0,-6.350120306E-1,3.810871243E-1,-3.278254569E-1
2.237573717E0,-9.162335396E-1,3.182383776E-1,-3.011946380E-1
2.247591998E0,-9.748213887E-1,2.809551954E-1,-2.426068187E-1
2.257610331E0,-8.299496770E-1,1.946713328E-1,-1.754971445E-1
2.267588092E0,-5.061188340E-1,1.019960642E-1,-9.453943372E-2
2.277569081E0,-7.789516449E-2,6.790860742E-2,-1.571218669E-2
2.287554654E0,3.503285050E-1,7.110430300E-2,3.328853101E-2
2.297545852E0,6.604444981E-1,1.264964193E-1,3.648423031E-2
2.307543508E0,7.957290411E-1,1.797580719E-1,2.263620123E-2
2.317548196E0,7.989247441E-1,2.063889056E-1,1.411433797E-2
2.327560123E0,7.414022088E-1,1.893451661E-1,1.198387146E-2
2.337579237E0,6.455312371E-1,1.840189993E-1,3.328853101E-2
2.347603508E0,5.452661514E-1,1.552577168E-1,5.991935730E-2
2.357634133E0,4.611127377E-1,2.849498391E-2,5.778888986E-2
2.367670331E0,3.673722446E-1,-1.845516264E-1,1.517957076E-2
2.377711112E0,2.278267145E-1,-3.730978668E-1,-5.086487532E-2
2.387755435E0,4.993279651E-2,-4.689688385E-1,-1.254311949E-1
2.397801998E0,-8.854749799E-2,-4.913387299E-1,-2.202369273E-1
2.407849602E0,-1.354177445E-1,-4.178376496E-1,-3.097164929E-1
2.417891946E0,-8.535179496E-2,-2.687050402E-1,-3.672390878E-1
2.427909446E0,3.075860441E-2,-9.507204592E-2,-3.874785006E-1
2.437926946E0,1.106510833E-1,8.601756394E-2,-3.725652397E-1
2.447902623E0,5.738943070E-2,1.584534049E-1,-3.395430148E-1
2.457881633E0,-2.291582525E-1,9.666989744E-2,-3.310211599E-1
2.467865383E0,-7.671009302E-1,-5.885412544E-2,-3.469996452E-1
2.477855019E0,-1.413697362E0,-2.985315621E-1,-4.098483920E-1
2.487851477E0,-1.943118215E0,-5.680354834E-1,-4.833494723E-1
2.497855331E0,-2.112490177E0,-8.812140226E-1,-4.865451753E-1
2.507866789E0,-1.969748974E0,-1.091064930E0,-3.874785006E-1
2.517884081E0,-1.629939675E0,-1.402112961E0,-2.649767101E-1
2.527908664E0,-1.044061542E0,-1.550180316E0,-1.339530498E-1
2.537939967E0,-7.926664948E-1,-1.372286439E0,3.115806542E-2
2.547976060E0,-1.298652172E0,-9.973244071E-1,8.974587917E-2
2.558017102E0,-2.192382812E0,-4.135767221E-1,-6.790860742E-2
2.568061998E0,-2.947633028E0,1.584534049E-1,-3.267602324E-1
2.578109446E0,-3.321529627E0,5.845466256E-1,-4.854799509E-1
2.588158196E0,-3.285311699E0,8.137048483E-1,-5.163717270E-1
2.598206737E0,-2.860283852E0,7.806826234E-1,-4.673709869E-1
2.608224237E0,-2.171077967E0,5.525896549E-1,-2.905423045E-1
2.618241737E0,-1.469089508E0,2.553896308E-1,4.820179567E-2
2.628259237E0,-9.567124248E-1,-2.263620123E-2,3.869459033E-1
2.638276737E0,-6.275554299E-1,-8.868064731E-2,5.584484339E-1
2.648267206E0,-3.974650800E-1,8.069140464E-2,5.595136285E-1
2.658259862E0,-1.609833390E-1,1.307573467E-1,4.689688385E-1
2.668255592E0,-1.291595027E-2,2.308892608E-1,4.114462435E-1
2.678255123E0,-8.854749799E-2,2.181064636E-1,3.549889028E-1
2.688258977E0,-2.174406946E-1,1.147788614E-1,2.782921195E-1
2.698267571E0,-2.611152530E-1,-2.157096937E-2,2.324871123E-1
2.708281060E0,-1.940055639E-1,-1.760297567E-1,2.133129090E-1
2.718299446E0,-4.274247587E-2,-2.420742065E-1,1.621817350E-1
2.728322467E0,1.489994675E-1,-1.131810099E-1,6.418029219E-2
2.738349706E0,3.822855055E-1,1.190397888E-1,-3.382114694E-2
2.748380592E0,6.476616859E-1,3.640433848E-1,-8.069140464E-2
2.758414446E0,9.331441522E-1,5.035889149E-1,-6.577813625E-2
2.768448821E0,1.217561364E0,5.515244007E-1,1.198387146E-2
2.778484706E0,1.435934067E0,3.832175732E-1,1.121157780E-1
2.788521321E0,1.569088221E0,-8.015878499E-2,2.005301118E-1
2.798556321E0,1.525413632E0,-4.252942801E-1,2.505960763E-1
2.808573769E0,1.268692493E0,-6.021229625E-1,2.601831555E-1
2.818591269E0,9.363398552E-1,-6.702978611E-1,2.154433727E-1
2.828608769E0,6.082480550E-1,-6.500584483E-1,1.568555683E-1
2.838626321E0,3.886769116E-1,-5.232957006E-1,5.991935730E-2
2.848643925E0,3.758940995E-1,-3.049229383E-1,-1.251648832E-2
2.858661529E0,5.954652429E-1,-1.504641622E-1,-3.595161438E-2
2.868678977E0,9.917319417E-1,-2.583190054E-2,-1.997311972E-2
2.878696269E0,1.439129829E0,2.636451647E-2,4.394086078E-2
2.888713560E0,1.762960672E0,7.536523789E-2,1.270290315E-1
2.898730852E0,1.874810100E0,1.499315500E-1,2.037258148E-1
2.908748144E0,1.787461042E0,1.680405140E-1,2.442046702E-1
2.918765435E0,1.526478887E0,1.446053833E-1,2.431394309E-1
2.928782779E0,1.142995000E0,1.478010863E-1,2.271609455E-1
2.938800123E0,6.785534620E-1,2.021279633E-1,2.005301118E-1
2.948817467E0,2.288919389E-1,2.692376375E-1,1.675078869E-1
2.958834862E0,-1.109173894E-1,2.575200796E-1,1.536598653E-1
2.968852310E0,-2.994636297E-1,1.786928326E-1,1.685731262E-1
2.978869810E0,-3.559209704E-1,5.725627393E-2,2.122476846E-1
2.988887362E0,-3.505948186E-1,-9.720251709E-2,2.974663079E-1
2.998904914E0,-3.399424851E-1,-2.505960763E-1,4.029243886E-1
3.008922519E0,-3.718994856E-1,-3.091838956E-1,4.817516208E-1
3.018913873E0,-4.688356817E-1,-2.463351339E-1,4.817516208E-1
3.028907362E0,-6.062507629E-1,-1.121157780E-1,4.029243886E-1
3.038903821E0,-7.053174376E-1,9.027849883E-2,2.804225981E-1
3.048903977E0,-6.818822622E-1,2.873466015E-1,1.291595101E-1
3.058906633E0,-4.762923121E-1,4.013265371E-1,-3.914731368E-2
3.068914081E0,-1.077216864E-1,5.078498721E-1,-1.978670359E-1
3.078926477E0,3.567199111E-1,6.314168572E-1,-3.139774203E-1
3.088943873E0,8.532516360E-1,7.178338766E-1,-3.715000153E-1
3.098966060E0,1.268692493E0,7.945306897E-1,-3.874785006E-1
3.108992675E0,1.513696074E0,8.765535951E-1,-3.640433848E-1
3.119023196E0,1.584001541E0,9.308804870E-1,-2.926727831E-1
3.129056894E0,1.491326213E0,8.893364072E-1,-2.244978547E-1
3.139092987E0,1.235670328E0,7.625737190E-1,-1.861494780E-1
3.149130644E0,8.234251142E-1,5.121107697E-1,-1.201050207E-1
3.159177779E0,3.183715343E-1,1.829537749E-1,-4.234301299E-2
3.169203769E0,-2.387453467E-1,-1.387466043E-1,3.009283356E-2
3.179221269E0,-7.276872993E-1,-3.922720551E-1,1.366161406E-1
3.189238508E0,-1.063235760E0,-4.497946501E-1,2.431394309E-1
3.199255748E0,-1.188933253E0,-3.794892728E-1,3.006620109E-1
3.209272987E0,-1.076018453E0,-3.336842358E-1,3.411408663E-1
3.219290227E0,-7.074478865E-1,-1.962691844E-1,3.741630912E-1
3.229307519E0,-1.652442664E-1,-3.967992961E-2,4.082505703E-1
3.239324862E0,3.844159544E-1,9.773512930E-2,4.444684684E-1
3.249342258E0,8.031857014E-1,2.149107605E-1,4.455337226E-1
3.259334289E0,1.040732622E0,2.820204496E-1,4.082505703E-1
3.269326581E0,1.072689652E0,3.416734934E-1,3.635107577E-1
3.279321998E0,9.288831949E-1,3.629781604E-1,3.145100474E-1
3.289321217E0,6.817491055E-1,3.331516385E-1,2.591179311E-1
3.299324810E0,4.025249183E-1,2.894770801E-1,2.133129090E-1
3.309333196E0,1.734998226E-1,2.319544852E-1,1.611164957E-1
3.319346529E0,7.323476952E-3,1.414096802E-1,1.121157780E-1
3.329364810E0,-9.600412846E-2,2.636451647E-2,5.246272683E-2
3.339387779E0,-1.215697154E-1,-3.648423031E-2,-8.255556226E-3
3.349415019E0,-7.256899774E-2,-8.335448056E-2,-5.193011090E-2
3.359444914E0,3.182383627E-2,-1.962691844E-1,-9.240896255E-2
3.369477987E0,1.798912287E-1,-3.091838956E-1,-1.552577168E-1
3.379513404E0,3.055887222E-1,-3.635107577E-1,-2.255630940E-1
3.389550383E0,3.716331720E-1,-3.965329826E-1,-3.011946380E-1
3.399588092E0,3.343500197E-1,-4.721645415E-1,-3.810871243E-1
3.409623717E0,3.288906813E-2,-5.073172450E-1,-4.492620230E-1
3.419642258E0,-6.126421690E-1,-5.605788827E-1,-4.886756539E-1
3.429658664E0,-1.363631368E0,-5.936011076E-1,-5.185021758E-1
3.439675071E0,-1.905835032E0,-8.215609789E-1,-5.898727775E-1
3.449691529E0,-1.985727549E0,-1.016498566E0,-6.857437491E-1
3.459683925E0,-1.579873681E0,-9.429975152E-1,-6.388735175E-1
3.469678404E0,-8.491238952E-1,-8.258218765E-1,-5.430025458E-1
3.479675852E0,-1.418091506E-1,-6.223623753E-1,-4.620448351E-1
3.489676894E0,1.734998226E-1,-5.232957006E-1,-3.395430148E-1
3.499682050E0,-1.535267085E-1,-5.722964406E-1,-1.893451661E-1
3.509691633E0,-1.062170506E0,-4.327509105E-1,-1.478010863E-1
3.519703977E0,-2.133794785E0,-1.398118287E-1,-2.862813771E-1
3.529721008E0,-3.083982706E0,2.223673910E-1,-4.428706169E-1
3.539742519E0,-3.760405779E0,6.015903354E-1,-4.631100595E-1
3.549768196E0,-3.845624447E0,7.881392837E-1,-3.746957183E-1
3.559797519E0,-3.220332623E0,7.199643850E-1,-2.415415943E-1
3.569829914E0,-2.106098890E0,5.675029159E-1,-1.251648832E-2
3.579864654E0,-8.906679749E-1,3.544562757E-1,3.315537870E-1
3.589900956E0,4.886756465E-2,3.994623665E-3,6.394061446E-1
3.599938039E0,4.760259986E-1,-1.483336985E-1,7.629731297E-1
3.609973664E0,3.300890923E-1,-2.910749316E-1,6.106448174E-1
3.619992206E0,-2.813546658E-1,-3.752283454E-1,3.379451632E-1
3.630009498E0,-1.052583337E0,-3.549889028E-1,1.142462417E-1
3.640026164E0,-1.773746133E0,-2.111824453E-1,5.592473317E-3
3.650042831E0,-2.240318298E0,5.299534276E-2,2.796236612E-2
3.660059550E0,-2.259492397E0,1.147788614E-1,9.507204592E-2
3.670076373E0,-1.780137539E0,5.619104207E-2,1.110505462E-1
3.680093300E0,-1.018495917E0,1.488663107E-1,5.885412544E-2
3.690110383E0,-2.419410497E-1,3.906742036E-1,-2.742975019E-2
3.700127571E0,3.929378390E-1,6.399387121E-1,-1.126483902E-1
3.710144914E0,7.904028893E-1,8.829450011E-1,-1.999974996E-1
3.720162414E0,9.352746010E-1,8.062482476E-1,-3.043903410E-1
3.730180019E0,9.118394852E-1,6.260907054E-1,-3.565867543E-1
3.740197727E0,8.585777879E-1,3.917394578E-1,-3.374125659E-1
3.750215592E0,8.351426721E-1,7.749570161E-2,-2.671071887E-1
3.760233560E0,8.234251142E-1,-1.717688292E-1,-1.808233112E-1
3.770209029E0,8.170337081E-1,-2.729659677E-1,-7.962616533E-2
3.780187935E0,9.139699340E-1,-1.920082569E-1,-7.323476672E-2
3.790171685E0,1.062037349E0,-4.181039706E-2,-1.190397888E-1
3.800161425E0,1.251648784E0,7.962616533E-2,-1.765623689E-1
3.810158039E0,1.441260338E0,2.021279633E-1,-2.287587970E-1
3.820162102E0,1.601045251E0,3.374125659E-1,-2.703028917E-1
3.830173821E0,1.689459562E0,4.173050225E-1,-2.639114857E-1
3.840193144E0,1.687329054E0,3.608476818E-1,-2.170412242E-1
3.850219706E0,1.598914742E0,2.085193694E-1,-1.339530498E-1
3.860252883E0,1.470021605E0,1.145125460E-2,4.527240526E-3
3.870290644E0,1.356041670E0,-2.324871123E-1,1.973344237E-1
3.880333144E0,1.280410051E0,-4.892082810E-1,4.274247587E-1
3.890379133E0,1.226083159E0,-6.969286799E-1,6.319494843E-1
3.900427310E0,1.151516914E0,-7.789516449E-1,7.501903772E-1
3.910476373E0,1.067363501E0,-7.054505944E-1,7.917344570E-1
3.920516217E0,9.991886020E-1,-5.222305059E-1,7.810820937E-1
3.930533717E0,9.459269047E-1,-2.559222281E-1,7.235595584E-1
3.940551008E0,8.894695640E-1,5.938674137E-2,6.319494843E-1
3.950568300E0,8.234251142E-1,3.427387178E-1,5.254262090E-1
3.960585644E0,7.690982223E-1,4.226312041E-1,4.412727654E-1
3.970576737E0,7.563154697E-1,2.351501882E-1,4.199681282E-1
3.980569967E0,7.222279906E-1,-1.238333359E-1,4.551208019E-1
3.990566217E0,5.784215331E-1,-5.062519908E-1,4.987953603E-1
4.000566164E0,2.874797583E-1,-8.141043186E-1,5.414046645E-1
4.010570383E0,-1.205044836E-1,-1.019694328E0,5.733616948E-1
4.020577571E0,-5.263582468E-1,-1.177348852E0,5.840139985E-1
4.030589706E0,-8.544500470E-1,-1.185870647E0,5.414046645E-1
4.040606842E0,-1.049387693E0,-9.951939583E-1,4.306204617E-1
4.050628717E0,-1.051518202E0,-6.798849702E-1,2.953358591E-1
4.060653196E0,-7.884055972E-1,-2.655093372E-1,1.483336985E-1
4.070680592E0,-3.005288541E-1,1.882799417E-1,-7.190322969E-3
4.080711529E0,3.290238380E-1,6.367430687E-1,-1.616491079E-1
4.090745279E0,9.970580935E-1,1.034208059E0,-2.873466015E-1
4.100781112E0,1.593588591E0,1.285603046E0,-3.832175732E-1
4.110818196E0,2.035660267E0,1.365495563E0,-4.769580960E-1
4.120855696E0,2.258294106E0,1.262167931E0,-5.653724074E-1
4.130884914E0,2.172010183E0,1.055512786E0,-6.239602566E-1
4.140901321E0,1.794917703E0,8.147701025E-1,-6.484606266E-1
4.150917727E0,1.170691133E0,5.408720970E-1,-6.825480461E-1
4.160934185E0,4.430037737E-1,3.043903410E-1,-7.006570101E-1
4.170950748E0,-1.865489334E-1,6.684337556E-2,-6.772218943E-1
4.180967467E0,-6.552514434E-1,-8.761541545E-2,-6.708304882E-1
4.190984394E0,-9.386034608E-1,-1.483336985E-1,-6.090469956E-1
4.201001477E0,-1.021691680E0,-2.495308369E-1,-4.940018058E-1
4.211018769E0,-9.354077578E-1,-3.656412363E-1,-3.619129062E-1
4.221036269E0,-7.053174376E-1,-3.901416063E-1,-2.575200796E-1
4.231053977E0,-3.473991156E-1,-3.400756419E-1,-1.936061084E-1
4.241071894E0,7.762885839E-2,-2.484655976E-1,-1.541924775E-1
4.251089914E0,4.632432163E-1,-1.121157780E-1,-1.211702600E-1
4.261084185E0,7.169018388E-1,4.660394415E-2,-7.110430300E-2
4.271079342E0,8.383383751E-1,1.936061084E-1,-2.636451647E-2
4.281077362E0,8.212946653E-1,2.766942680E-1,1.837527007E-2
4.291078925E0,6.508573890E-1,2.404763550E-1,5.139749497E-2
4.301084498E0,3.940030634E-1,1.115831584E-1,8.441971987E-2
4.311094394E0,1.617822647E-1,-8.868064731E-2,1.376813650E-1
4.321108769E0,-2.143781446E-2,-2.910749316E-1,1.888125539E-1
4.331127519E0,-1.407439113E-1,-4.913387299E-1,2.143781483E-1
4.341150435E0,-1.865489334E-1,-6.106448174E-1,2.218347788E-1
4.351177154E0,-1.279611140E-1,-6.266233325E-1,2.133129090E-1
4.361207206E0,1.797580719E-2,-5.722964406E-1,1.856168509E-1
4.371239914E0,1.905435622E-1,-4.710993171E-1,1.419423074E-1
4.381274550E0,3.322195411E-1,-4.572512805E-1,6.737598777E-2
4.391310383E0,3.609808385E-1,-5.296871066E-1,-5.086487532E-2
4.401346581E0,1.830869317E-1,-6.191666722E-1,-1.723014414E-1
4.411374029E0,-2.632457018E-1,-6.873416305E-1,-2.713681161E-1
4.421391581E0,-8.906679749E-1,-7.150376439E-1,-3.491301239E-1
4.431409081E0,-1.509568334E0,-6.990591884E-1,-4.354139864E-1
4.441426581E0,-1.905835032E0,-4.987953603E-1,-5.632419586E-1
4.451444081E0,-1.899443626E0,-3.581846058E-1,-3.576519787E-1
4.461461581E0,-1.619287372E0,-1.696383655E-1,-2.191716880E-1
4.471479081E0,-1.270956159E0,-5.139749497E-2,-9.986559302E-2
4.481455383E0,-1.025952578E0,-1.909430176E-1,2.689713426E-2
4.491434967E0,-9.907998443E-1,-2.537917793E-1,3.648423031E-2
4.501419185E0,-1.163367629E0,-2.782921195E-1,-7.110430300E-2
4.511409237E0,-1.501046538E0,-1.962691844E-1,-2.191716880E-1
4.521406008E0,-1.978270888E0,-9.933298081E-2,-3.469996452E-1
4.531410019E0,-2.500235081E0,-4.926702753E-2,-4.513925016E-1
4.541421529E0,-2.944437265E0,-2.157096937E-2,-5.259587765E-1
4.551440435E0,-3.130852938E0,-1.973344237E-1,-4.876104295E-1
4.561466425E0,-2.940176249E0,-3.507279754E-1,-3.736304939E-1
4.571498873E0,-2.416081667E0,-3.773587942E-1,-2.777595222E-1
4.581535279E0,-1.709832191E0,-3.006620109E-1,-1.861494780E-1
4.591576373E0,-9.833432436E-1,-2.964010835E-1,-1.179745570E-1
4.601621008E0,-4.922707975E-1,-2.697702646E-1,-6.045197323E-2
4.611667987E0,-3.484643400E-1,-3.166405261E-1,-1.251648832E-2
4.621716060E0,-5.157059431E-1,-4.231638312E-1,4.287562892E-2
4.631759029E0,-8.704285622E-1,-4.838820994E-1,1.121157780E-1
4.641777571E0,-1.256042838E0,-5.158390999E-1,1.664426625E-1
4.651794289E0,-1.573482275E0,-5.200999975E-1,1.994648874E-1
4.661811008E0,-1.694918871E0,-5.126433969E-1,2.452699095E-1
4.671827831E0,-1.570286632E0,-2.346175760E-1,2.889444530E-1
4.681819862E0,-1.152715325E0,-1.198387146E-2,3.123795986E-1
4.691813977E0,-4.741618633E-1,1.957365721E-1,2.772268951E-1
4.701811060E0,2.544575334E-1,3.448691964E-1,2.239652425E-1
4.711811737E0,7.904028893E-1,3.768261969E-1,1.685731262E-1
4.721816581E0,1.043928385E0,1.563229412E-1,1.206376404E-1
4.731825956E0,1.067363501E0,-1.920082569E-1,8.335448056E-2
4.741839967E0,9.086437821E-1,-2.995967865E-1,3.541899845E-2
4.751858560E0,6.774882078E-1,-2.942706347E-1,5.592473317E-3
4.761881581E0,4.387428463E-1,-2.591179311E-1,-2.423405088E-2
4.771908560E0,1.873478591E-1,-2.058562785E-1,-7.430000603E-2
4.781937883E0,-7.043853402E-2,-8.441971987E-2,-1.275616586E-1
4.791970071E0,-3.218335211E-1,9.027849883E-2,-1.350182891E-1
4.802004394E0,-5.061188340E-1,2.830856740E-1,-1.158440933E-1
4.812040123E0,-5.881417990E-1,5.057193637E-1,-5.938674137E-2
4.822076477E0,-5.540543199E-1,7.295514941E-1,3.435376659E-2
4.832109289E0,-3.942693770E-1,9.489894509E-1,1.067896113E-1
4.842127935E0,-1.588528752E-1,1.098122120E0,1.248985752E-1
4.852144289E0,6.165036187E-2,1.152449012E0,7.802832127E-2
4.862160696E0,1.788259894E-1,1.152449012E0,-1.864157850E-3
4.872177154E0,2.097177505E-1,1.149253249E0,1.837527007E-2
4.882193717E0,1.745650619E-1,9.990554452E-1,1.837527007E-2
4.892210487E0,9.360735118E-2,8.744231462E-1,-1.251648832E-2
4.902227414E0,3.928046674E-2,7.572475076E-1,-2.529928461E-2
4.912244550E0,1.584534161E-2,6.101121902E-1,1.331541222E-3
4.922261946E0,3.608476743E-2,4.311530590E-1,7.057169080E-2
4.932279550E0,1.138467789E-1,2.031932026E-1,1.579207927E-1
4.942297310E0,2.587184608E-1,1.358172111E-2,2.591179311E-1
4.952315227E0,4.557865858E-1,-1.280942708E-1,3.784240186E-1
4.962333300E0,6.870753169E-1,-2.697702646E-1,5.105129480E-1
4.972351477E0,9.235570431E-1,-4.178376496E-1,6.426018476E-1
4.982369758E0,1.148321152E0,-4.306204617E-1,6.639064550E-1
4.992388092E0,1.370954871E0,-4.508598745E-1,6.319494843E-1
5.002406425E0,1.526478887E0,-2.474003732E-1,5.722964406E-1
5.012424758E0,1.597849488E0,-1.419423074E-1,4.476641715E-1
5.022442102E0,1.627676010E0,-3.754946589E-2,3.251623809E-1
5.032459446E0,1.601045251E0,5.512581021E-2,2.442046702E-1
5.042476842E0,1.512630939E0,9.773512930E-2,2.346175760E-1
