"Time (s)","Linear Acceleration x (m/s^2)","Linear Acceleration y (m/s^2)","Linear Acceleration z (m/s^2)"
1.251316700E-1,1.116485894E-1,-4.141244888E-1,-1.236605644E-1
1.351796390E-1,-1.489907503E-2,-5.893492699E-1,-3.616325855E-1
1.452312530E-1,-9.401637316E-2,-7.167801857E-1,-4.922749996E-1
1.552850030E-1,-5.108302832E-2,-8.406729698E-1,-5.033886433E-1
1.653393260E-1,-1.850241423E-2,-9.707250595E-1,-6.488735676E-1
1.753713050E-1,6.327262521E-2,-1.225429058E0,-7.523691654E-1
1.853884930E-1,1.613358557E-1,-1.495557308E0,-7.780318260E-1
1.954056800E-1,8.515337110E-2,-1.688618660E0,-8.550384045E-1
2.054228680E-1,2.253623009E-1,-1.922306061E0,-7.966306210E-1
2.153954200E-1,3.178958595E-1,-2.168294907E0,-7.848389149E-1
2.253704200E-1,3.619073331E-1,-2.327637672E0,-8.521473408E-1
2.353505760E-1,3.598555326E-1,-2.495878220E0,-7.360732555E-1
2.453371390E-1,3.036410809E-1,-2.596195698E0,-7.025649548E-1
2.553310970E-1,2.307711989E-1,-2.704696178E0,-7.423038483E-1
2.653330760E-1,1.551287770E-1,-2.843336582E0,-8.296346664E-1
2.753433890E-1,5.905532837E-2,-2.992219210E0,-9.537743330E-1
2.853619300E-1,7.669064403E-2,-3.072734833E0,-9.260603189E-1
2.953883890E-1,4.198992252E-2,-3.174906969E0,-8.577555418E-1
3.054220350E-1,6.771427393E-2,-3.316453695E0,-9.285819530E-1
3.154619300E-1,1.202784181E-1,-3.445040464E0,-1.022847176E0
3.255068780E-1,1.075191796E-1,-3.634755135E0,-1.093847752E0
3.355555760E-1,1.297453046E-2,-3.758944511E0,-1.146653891E0
3.456066180E-1,-1.767814159E-2,-3.828751087E0,-1.501784801E0
3.556585450E-1,2.144486159E-1,-3.779734135E0,-1.851543427E0
3.656981280E-1,3.084240258E-1,-3.660253763E0,-1.945306778E0
3.757153160E-1,1.299118251E-1,-3.489575624E0,-2.058750868E0
3.857325030E-1,-1.690620184E-2,-3.379956722E0,-1.793166518E0
3.957496910E-1,-1.536391973E-1,-3.012933016E0,-1.843879938E0
4.057666700E-1,-1.486049294E-1,-2.637316465E0,-1.355000854E0
4.157837010E-1,-2.442492247E-1,-2.476690531E0,-1.038366079E0
4.258007330E-1,-3.404236734E-1,-2.399209499E0,-6.180957556E-1
4.358178160E-1,-3.205448687E-1,-2.333104610E0,-1.222399473E-1
4.458348990E-1,-2.106856704E-1,-2.199024439E0,3.190840483E-1
4.558519830E-1,-1.760900021E-1,-2.036280394E0,8.358925581E-1
4.658254720E-1,-1.586178243E-1,-1.897480488E0,1.209925652E0
4.758025030E-1,-2.093816102E-1,-1.557201862E0,1.295030594E0
4.857845350E-1,-1.724761724E-1,-1.178309441E0,1.508470058E0
4.957727640E-1,1.561081409E-2,-8.872013092E-1,1.888662457E0
5.057681280E-1,3.202551603E-1,-5.081014633E-1,2.259068966E0
5.157711490E-1,5.768201947E-1,1.587848663E-1,2.551033258E0
5.257821390E-1,8.349283934E-1,1.131574154E0,2.588212967E0
5.358023990E-1,1.217495322E0,2.100232124E0,2.647153854E0
5.458300550E-1,1.526968718E0,2.883517265E0,2.650509834E0
5.558644300E-1,1.691338897E0,3.673057079E0,3.459717751E0
5.659045870E-1,1.578186631E0,4.647147179E0,4.079400063E0
5.759493260E-1,9.571840167E-1,5.642766476E0,4.674131870E0
5.859973470E-1,2.928213477E-1,6.339911938E0,4.635028839E0
5.960472950E-1,-4.319161177E-2,6.833160877E0,5.470574856E0
6.060978160E-1,-4.795223475E-3,7.246263027E0,6.145079613E0
6.161293780E-1,9.157025814E-1,7.856645584E0,6.801595211E0
6.261454720E-1,2.012004137E0,8.675544739E0,6.841944695E0
6.361210450E-1,1.747069716E0,1.010297203E1,6.642605782E0
6.460998990E-1,4.346624017E-1,1.153268623E1,5.649485111E0
6.560834930E-1,-2.181032181E0,1.410701561E1,5.186785698E0
6.660729720E-1,-4.322200298E0,1.743697548E1,6.410906792E0
6.760691700E-1,-5.350940228E0,1.968770599E1,8.255989075E0
6.860726600E-1,-5.402424335E0,2.001259613E1,9.472215652E0
6.960837010E-1,-4.332911491E0,1.944523621E1,1.070534134E1
7.061022950E-1,-2.502259970E0,1.973305702E1,1.155910873E1
7.161373990E-1,-1.926875114E-1,1.870812798E1,1.252002144E1
7.261782850E-1,8.925235271E-1,1.764047623E1,1.332528305E1
7.362227120E-1,8.972089291E-1,1.642702484E1,1.436338997E1
7.462704720E-1,-2.784147859E-1,1.500309277E1,1.405115891E1
7.563202640E-1,-1.476138830E0,1.348985863E1,1.310233593E1
7.663706800E-1,-2.180197477E0,1.197136784E1,1.110341167E1
7.764047430E-1,-2.290547609E0,1.022287846E1,8.412132263E0
7.864218780E-1,-2.066788435E0,8.719464302E0,5.557909966E0
7.964377640E-1,-1.346788287E0,6.845295906E0,2.938313961E0
8.064537010E-1,-9.806044698E-1,5.955019951E0,1.141695499E0
8.164697430E-1,-4.399894476E-1,5.061577797E0,6.040744781E-1
8.264858890E-1,-2.394870520E-1,4.468155861E0,4.401812553E-1
8.364796390E-1,-6.425672770E-2,3.714365005E0,4.638547897E-1
8.464753680E-1,2.802816331E-1,2.998494148E0,1.632009506E0
8.564738580E-1,4.443584383E-1,2.658048630E0,2.416411877E0
8.664757850E-1,6.430175304E-1,2.153384209E0,2.996112823E0
8.764816180E-1,3.050044477E-1,1.767040253E0,2.759427547E0
8.864916180E-1,-7.086491585E-2,1.517102242E0,2.205975533E0
8.965059410E-1,-3.359914422E-1,1.056052208E0,1.556488037E0
9.065245350E-1,-2.853581309E-1,4.775676727E-1,7.520728111E-1
9.165471390E-1,-1.123610735E-1,-7.629871368E-2,-2.885308266E-1
9.265733890E-1,6.400185823E-2,-6.958007812E-1,-1.198542595E0
9.366028160E-1,2.257559299E-1,-1.258981705E0,-1.606867075E0
9.466347950E-1,3.193612099E-1,-1.728470802E0,-1.917428732E0
9.566685970E-1,3.889890909E-1,-2.048918724E0,-1.940382242E0
9.666891180E-1,5.113614798E-1,-2.157541275E0,-1.802227974E0
9.767111490E-1,5.618965030E-1,-2.237792969E0,-1.620388031E0
9.867344300E-1,5.241664648E-1,-2.187111855E0,-1.226309299E0
9.967586490E-1,3.072301745E-1,-1.894505501E0,-1.022477627E0
1.006783545E0,1.455028057E-1,-1.627561569E0,-9.702348709E-1
1.016808753E0,3.198427558E-1,-1.651619911E0,-6.365818977E-1
1.026833858E0,6.926586032E-1,-1.699750900E0,-4.480671883E-1
1.036852139E0,9.705860615E-1,-1.782818794E0,-5.656304359E-1
1.046869378E0,1.199603319E0,-1.801127434E0,-6.298394203E-1
1.056885264E0,1.616562128E0,-1.612492561E0,-4.005784988E-1
1.066875680E0,1.324746847E0,-1.826327324E0,-7.671523094E-1
1.076868233E0,1.351356506E0,-1.939888954E0,-6.098027229E-1
1.086863805E0,1.142000675E0,-2.191839695E0,-3.841624260E-1
1.096863128E0,7.920330167E-1,-2.316814899E0,-1.206402779E-1
1.106866774E0,6.067544818E-1,-2.604006290E0,3.426766396E-1
1.116875160E0,4.731846750E-1,-3.050283432E0,1.886491776E-1
1.126888441E0,4.323402643E-1,-3.344895363E0,-5.167570114E-1
1.136906566E0,3.894407451E-1,-3.566165924E0,-1.495290041E0
1.146929274E0,2.214336693E-1,-3.677271366E0,-2.448760986E0
1.156956149E0,4.857236147E-1,-4.089357853E0,-2.965291977E0
1.166986670E0,6.098929644E-1,-4.403146267E0,-3.524114609E0
1.177020160E0,5.735967159E-1,-4.557363510E0,-3.917048454E0
1.187055837E0,4.678170085E-1,-4.681347370E0,-3.942450047E0
1.197092868E0,2.529292107E-1,-4.833133221E0,-3.820932865E0
1.207130420E0,1.285505295E-1,-4.985878468E0,-3.412353516E0
1.217119951E0,1.266912818E-1,-5.061043739E0,-2.961613655E0
1.227112191E0,1.591757238E-1,-5.065675735E0,-2.765006065E0
1.237108024E0,3.076228797E-1,-5.043746948E0,-2.609839916E0
1.247106722E0,5.143711567E-1,-5.075677395E0,-2.729616165E0
1.257110368E0,6.285200119E-1,-5.136318684E0,-2.872048855E0
1.267119274E0,5.552274585E-1,-5.144603252E0,-3.037134409E0
1.277133597E0,4.953135848E-1,-5.180942535E0,-3.069623470E0
1.287153233E0,4.532119334E-1,-5.172828674E0,-3.101093292E0
1.297177868E0,4.045161307E-1,-5.153733730E0,-3.131934643E0
1.307207035E0,3.781812191E-1,-5.256381035E0,-3.110782146E0
1.317240108E0,3.804228008E-1,-5.327583790E0,-2.971656799E0
1.327276305E0,3.269518018E-1,-5.244528770E0,-2.776005745E0
1.337314691E0,2.148236036E-1,-5.133204937E0,-2.435955048E0
1.347353233E0,1.830806285E-1,-5.066690445E0,-1.730472326E0
1.357392139E0,1.303221583E-1,-5.070620537E0,-1.256578922E0
1.367419118E0,9.992617369E-2,-5.046057224E0,-1.256558657E0
1.377436305E0,1.782595664E-1,-4.983587265E0,-1.356124878E0
1.387453493E0,2.455052882E-1,-4.911342621E0,-1.755610943E0
1.397470680E0,2.315135747E-1,-4.823137760E0,-2.132513285E0
1.407487712E0,7.776661217E-2,-4.651360035E0,-2.361126900E0
1.417504743E0,-1.749958992E-1,-4.381405354E0,-2.625444651E0
1.427521826E0,-3.142825365E-1,-4.140538692E0,-2.958035946E0
1.437538910E0,-5.469321012E-1,-3.812222481E0,-3.563361406E0
1.447529587E0,-6.922745705E-1,-3.700122833E0,-3.757967710E0
1.457522399E0,-7.129533291E-1,-3.784255505E0,-3.491293430E0
1.467516566E0,-5.556242466E-1,-3.769555569E0,-3.010973692E0
1.477514587E0,-3.573702276E-1,-3.605874538E0,-2.690647602E0
1.487517087E0,-1.891012192E-1,-3.537871361E0,-2.555285454E0
1.497524483E0,9.667967260E-2,-3.551191330E0,-2.454703093E0
1.507537035E0,4.183201194E-1,-3.507787704E0,-2.392242432E0
1.517554691E0,6.191104650E-1,-3.375166893E0,-2.585474491E0
1.527577191E0,6.672706604E-1,-3.215539932E0,-2.914262295E0
1.537604118E0,6.536287069E-1,-3.075858593E0,-3.336788416E0
1.547634951E0,5.744981766E-1,-2.964128017E0,-3.927010775E0
1.557668962E0,4.166905880E-1,-2.868910789E0,-4.545084953E0
1.567705368E0,1.900423765E-1,-2.807324886E0,-5.033195019E0
1.577743285E0,-4.858779907E-2,-2.644474983E0,-4.857474327E0
1.587781826E0,-1.147990078E-1,-3.127870560E0,-5.074502945E0
1.597814847E0,-2.767811716E-1,-3.005751610E0,-3.754398584E0
1.607832035E0,-2.967080176E-1,-2.966834068E0,-2.034571409E0
1.617849222E0,-2.648279667E-1,-3.034781933E0,-7.294223309E-1
1.627866410E0,-9.252776206E-2,-3.237124443E0,1.060400009E-1
1.637883597E0,1.517274380E-1,-3.370443344E0,3.641309738E-1
1.647900785E0,4.546104372E-1,-3.587817669E0,2.196798325E-1
1.657918024E0,6.177932620E-1,-3.873343945E0,-2.085227966E-1
1.667935264E0,5.717371106E-1,-3.981875896E0,-7.371561527E-1
1.677952503E0,4.064971209E-1,-4.227007866E0,-1.450194359E0
1.687969743E0,9.604901820E-2,-4.367414474E0,-2.103668928E0
1.697986983E0,-1.068491861E-1,-4.449838638E0,-2.224829674E0
1.708004222E0,-2.803722024E-1,-4.521723747E0,-2.289393187E0
1.717980055E0,-3.734057546E-1,-4.530652523E0,-2.293127537E0
1.727959170E0,-3.828384876E-1,-4.429483414E0,-2.155225277E0
1.737942972E0,-4.831213951E-1,-4.304991722E0,-1.971019268E0
1.747932608E0,-6.366480589E-1,-4.305611610E0,-1.577558517E0
1.757928962E0,-7.272288203E-1,-4.389163017E0,-1.268643379E0
1.767932608E0,-7.601807714E-1,-4.403047085E0,-1.414716244E0
1.777943805E0,-8.143647909E-1,-4.261401176E0,-1.428219557E0
1.787962451E0,-8.616396785E-1,-4.055296421E0,-1.358216524E0
1.797988180E0,-8.324476480E-1,-3.884536266E0,-1.558981895E0
1.808020420E0,-6.971276402E-1,-3.657055855E0,-2.084053993E0
1.818058285E0,-5.593398809E-1,-3.299523354E0,-2.483508348E0
1.828100733E0,-5.390374064E-1,-2.972900867E0,-2.676055431E0
1.838146566E0,-6.996335983E-1,-2.594887733E0,-2.713033199E0
1.848194483E0,-8.748231530E-1,-2.284484863E0,-2.267351151E0
1.858243180E0,-9.853779674E-1,-2.007787228E0,-1.670543432E0
1.868279743E0,-1.313962102E0,-1.822508335E0,-1.059342384E0
1.878297191E0,-9.896008968E-1,-1.543797016E0,8.442521095E-2
1.888314430E0,-3.558304906E-1,-1.064835072E0,1.181509972E0
1.898331670E0,5.193080902E-1,-5.371665955E-1,1.847282410E0
1.908348858E0,1.113442183E0,7.316112518E-3,2.280528545E0
1.918366045E0,1.302017927E0,6.663208008E-1,2.500606537E0
1.928383233E0,1.210491419E0,1.243145466E0,2.147319317E0
1.938400420E0,9.316399693E-1,1.653779507E0,1.335369110E0
1.948417503E0,5.905492306E-1,2.117217541E0,4.178423882E-1
1.958393233E0,4.447843432E-1,2.775650501E0,-3.454973698E-1
1.968370472E0,1.315075755E-1,3.622403145E0,-7.954373360E-1
1.978352555E0,-1.798384339E-1,4.520549774E0,-4.035611153E-1
1.988340680E0,-3.523211777E-1,5.236443996E0,4.969763756E-1
1.998335785E0,-7.703896761E-1,6.344379902E0,1.715292454E0
2.008338493E0,-9.618587494E-1,7.212795734E0,3.522404194E0
2.018349118E0,-1.067133546E0,7.889449120E0,6.187859535E0
2.028367555E0,-9.537722468E-1,8.548725128E0,8.817579269E0
2.038393441E0,-1.329354763E0,9.279068947E0,9.956841469E0
2.048426149E0,-2.157713175E0,1.021512604E1,8.574207306E0
2.058463701E0,-2.765520573E0,1.147210121E1,6.442139149E0
2.068504378E0,-2.909271717E0,1.226563931E1,3.868958473E0
2.078548910E0,-2.552265644E0,1.274522495E1,3.213322639E0
2.088596045E0,-2.202445507E0,1.272966576E1,4.303935528E0
2.098644483E0,-7.399588823E-1,1.294087696E1,7.704597473E0
2.108692920E0,9.905275702E-1,1.256069565E1,1.185318756E1
2.118710628E0,1.855820417E0,1.244999218E1,1.469823837E1
2.128727816E0,2.169012070E0,1.236800575E1,1.562972832E1
2.138745003E0,2.064412355E0,1.207948494E1,1.354752541E1
2.148762191E0,1.759533405E0,1.177144718E1,9.312875748E0
2.158752191E0,1.324637651E0,1.168309975E1,5.366399765E0
2.168744326E0,3.299332857E-1,1.151288700E1,2.941583633E0
2.178739535E0,-3.864694238E-1,1.131615448E1,2.207461357E0
2.188738597E0,-4.046188593E-1,1.093398857E1,2.809877396E0
2.198742035E0,-5.647603273E-1,1.032388210E1,4.445888996E0
2.208750264E0,-2.997851372E-1,9.406946182E0,6.439396858E0
2.218771930E0,-4.813581705E-3,8.354998589E0,8.188726425E0
2.228797816E0,1.159471571E-1,7.311232567E0,9.259901047E0
2.238827399E0,9.177038074E-2,6.283023834E0,9.172092438E0
2.248860055E0,-1.510288715E-1,5.374629021E0,7.955311775E0
2.258895055E0,-3.837832212E-1,4.603859901E0,6.175303936E0
2.268931566E0,-5.343272090E-1,3.832650185E0,4.249353886E0
2.278968753E0,-5.841361880E-1,3.128452301E0,2.120877266E0
2.289003389E0,-8.326445222E-1,2.487143517E0,1.526513100E-1
2.299020576E0,-2.417072058E-1,2.116663933E0,-8.680305481E-1
2.309037555E0,6.554490328E-2,1.551923752E0,-2.576028109E0
2.319054535E0,8.403721452E-2,9.216499329E-1,-3.578683853E0
2.329071514E0,1.466960311E-1,4.410209656E-1,-3.461041927E0
2.339088493E0,-3.996482491E-2,2.203083038E-1,-3.031546593E0
2.349105472E0,-1.532251239E-1,-4.387283325E-2,-2.563906193E0
2.359122451E0,-1.975012422E-1,-3.248453140E-1,-1.786052704E0
2.369139483E0,-2.903270721E-1,-6.069526672E-1,-7.630224228E-1
2.379156566E0,-2.379979491E-1,-6.494512558E-1,2.295112610E-2
2.389173701E0,2.577100694E-2,-1.004958153E0,6.891317368E-1
2.399190941E0,2.622408569E-1,-1.211025238E0,7.860445976E-1
2.409208285E0,6.715935469E-1,-1.449023247E0,3.957018852E-1
2.419225680E0,1.133708358E0,-1.611300468E0,-3.423388004E-1
2.429243128E0,1.373720169E0,-1.303021431E0,-8.914501667E-1
2.439260576E0,1.426187277E0,-1.425992966E0,-9.416778088E-1
2.449278024E0,1.131136298E0,-1.017315865E0,-6.858310699E-1
2.459295472E0,9.066658616E-1,-5.341062546E-1,3.078594208E-1
2.469268753E0,5.498335958E-1,-3.478460312E-1,1.305327892E0
2.479245576E0,4.131880701E-1,-4.981536865E-1,1.844867706E0
2.489227399E0,4.552498162E-1,-6.945629120E-1,2.123361111E0
2.499215420E0,5.568382144E-1,-8.383922577E-1,2.207435131E0
2.509210576E0,6.406593919E-1,-1.155409813E0,1.885911465E0
2.519213441E0,5.808472633E-1,-1.582858562E0,1.322700024E0
2.529224326E0,5.102508664E-1,-1.961900711E0,5.599484444E-1
2.539243128E0,5.140758157E-1,-2.343599319E0,-3.474712372E-1
2.549269483E0,5.140624046E-1,-2.783276081E0,-1.107101679E0
2.559302712E0,3.889250159E-1,-3.068302631E0,-1.930097342E0
2.569341878E0,5.910413265E-1,-3.478700638E0,-2.420372248E0
2.579385889E0,6.902394295E-1,-3.788065434E0,-2.888723373E0
2.589433545E0,5.394019485E-1,-3.954195499E0,-3.110507011E0
2.599483493E0,2.967647910E-1,-3.996872902E0,-3.272792339E0
2.609534274E0,9.042578936E-2,-4.060513020E0,-3.173832655E0
2.619572920E0,8.819401264E-4,-4.169740200E0,-3.137300968E0
2.629590160E0,6.190782785E-2,-4.306175709E0,-3.141759157E0
2.639607139E0,1.733990610E-1,-4.374507427E0,-3.329658985E0
2.649623545E0,2.531484067E-1,-4.451386929E0,-3.132386684E0
2.659639951E0,-2.392813563E-2,-4.484084129E0,-3.334379673E0
2.669615733E0,-1.014506519E-1,-4.320073128E0,-2.955895185E0
2.679594847E0,-9.782396257E-2,-4.322865009E0,-2.781973362E0
2.689578701E0,-1.948082447E-2,-4.439624786E0,-2.667990923E0
2.699568441E0,1.163369715E-1,-4.554611206E0,-2.710904598E0
2.709564899E0,2.501452565E-1,-4.777468204E0,-2.523656607E0
2.719566983E0,3.453401327E-1,-4.893852711E0,-2.209925175E0
2.729576774E0,3.946683705E-1,-5.034574032E0,-1.981064558E0
2.739594222E0,4.585120678E-1,-5.181138515E0,-1.854060411E0
2.749619014E0,5.044532418E-1,-5.276621819E0,-1.627144575E0
2.759650524E0,3.992458284E-1,-5.302768707E0,-1.251353502E0
2.769686149E0,2.753350735E-1,-5.313557148E0,-6.956217289E-1
2.779726774E0,2.348069400E-1,-5.334204674E0,-4.013085365E-1
2.789771305E0,2.096473873E-1,-5.360300064E0,-4.807462692E-1
2.799818441E0,1.360992938E-1,-5.328984261E0,-7.002344131E-1
2.809866878E0,7.967275381E-2,-5.220022678E0,-1.186357975E0
2.819915368E0,-3.124386072E-2,-5.088509560E0,-1.757963061E0
2.829933649E0,-2.144952416E-1,-4.860189915E0,-2.340683460E0
2.839950837E0,-3.511872888E-1,-4.509943962E0,-2.705253601E0
2.849968024E0,-6.244469881E-1,-4.099173546E0,-3.276215553E0
2.859985055E0,-7.820454836E-1,-3.756130695E0,-3.502162933E0
2.869975316E0,-7.557595968E-1,-3.685906410E0,-3.246080399E0
2.879967712E0,-5.797891617E-1,-3.583825111E0,-2.485613108E0
2.889963180E0,-4.687924087E-1,-3.461670876E0,-2.066183805E0
2.899962451E0,-3.839830160E-1,-3.320253849E0,-1.908023238E0
2.909966097E0,-2.762814760E-1,-3.254896164E0,-1.848427534E0
2.919974483E0,-6.910464168E-2,-3.289739609E0,-1.732683539E0
2.929987764E0,1.897005290E-1,-3.349388123E0,-1.580972075E0
2.940005889E0,4.334766865E-1,-3.272456646E0,-1.820125461E0
2.950028649E0,4.427855015E-1,-3.040567875E0,-2.467124939E0
2.960055628E0,1.987243295E-1,-2.796285152E0,-3.342583895E0
2.970084483E0,-7.349103689E-3,-2.599522591E0,-4.098820210E0
2.980116462E0,-1.244264841E-1,-2.405451298E0,-4.397568703E0
2.990150837E0,-1.373579651E-1,-2.728500843E0,-5.060446262E0
3.000186826E0,-3.326227665E-1,-2.704922199E0,-5.539691925E0
3.010223597E0,-4.950404465E-1,-2.711966991E0,-5.366186142E0
3.020260368E0,-6.494675875E-1,-2.735560894E0,-4.917414665E0
3.030278285E0,-5.909323096E-1,-2.963298798E0,-3.764088154E0
3.040296201E0,-1.091573983E-1,-3.440452576E0,-2.539060354E0
3.050312660E0,2.215076387E-1,-3.868399620E0,-1.549071193E0
3.060329170E0,3.529404700E-1,-4.082885265E0,-6.098845005E-1
3.070302503E0,3.208053410E-1,-4.215518951E0,-2.232351303E-1
3.080279378E0,1.905054301E-1,-4.348203659E0,-2.342367172E-1
3.090261305E0,2.297501266E-2,-4.537978649E0,-2.657129765E-1
3.100249430E0,-9.301890433E-2,-4.717660904E0,-3.614835739E-1
3.110244691E0,-1.195816249E-1,-4.891695976E0,-6.371645927E-1
3.120247660E0,-1.465827525E-1,-4.963381767E0,-1.157282114E0
3.130258649E0,-1.983607709E-1,-4.964576721E0,-1.648691893E0
3.140277503E0,-1.500434279E-1,-5.027586460E0,-2.034158468E0
3.150303910E0,-3.535413742E-2,-5.065411091E0,-2.158435345E0
3.160337191E0,6.699085236E-3,-5.092360973E0,-2.108561516E0
3.170376462E0,-7.261171937E-2,-5.127748966E0,-2.056674004E0
3.180420524E0,-1.785175502E-1,-5.262472153E0,-1.968980193E0
3.190468180E0,-2.969939709E-1,-5.434707642E0,-1.844274282E0
3.200518024E0,-3.386095464E-1,-5.415983200E0,-1.542257309E0
3.210568701E0,-5.777372122E-1,-5.517860889E0,-1.807082653E0
3.220605420E0,-6.071085930E-1,-5.410260201E0,-1.873197436E0
3.230622868E0,-5.657057762E-1,-5.222755909E0,-2.070853233E0
3.240639847E0,-5.287642479E-1,-5.021721363E0,-2.558828592E0
3.250656826E0,-4.339295030E-1,-4.823944092E0,-3.007230759E0
3.260673858E0,-2.535031140E-1,-4.646522522E0,-3.215333462E0
3.270690941E0,-4.504728317E-2,-4.441114426E0,-3.251719713E0
3.280708076E0,-3.232455254E-2,-4.164877892E0,-3.226296425E0
3.290725212E0,-1.631305218E-1,-3.755882263E0,-2.842952728E0
3.300742347E0,-2.495276928E-1,-3.324955940E0,-1.981931567E0
3.310759483E0,-2.225552499E-1,-2.983745575E0,-1.027601004E0
3.320776670E0,-2.363312989E-1,-2.385980606E0,1.449666023E-1
3.330793858E0,4.219816029E-1,-1.946367264E0,1.106986523E0
3.340811045E0,1.061745524E0,-1.507679939E0,1.230323792E0
3.350828285E0,1.221733332E0,-9.301729202E-1,7.777323723E-1
3.360845576E0,1.034437180E0,-8.794212341E-2,1.956791878E-1
3.370862920E0,4.866330624E-1,8.483123779E-1,-1.613435745E-1
3.380839691E0,-4.372489452E-2,1.564348221E0,-1.627020836E-1
3.390819743E0,-3.553394973E-1,2.387529373E0,1.775159836E-1
3.400804430E0,-2.095508873E-1,3.030827522E0,9.972405434E-1
3.410794847E0,8.448852599E-2,3.313045502E0,1.574468613E0
3.420791826E0,7.357251048E-1,3.568327904E0,2.849026203E0
3.430795941E0,1.666111469E0,3.849850655E0,4.521057606E0
3.440807399E0,1.707835197E0,5.013244629E0,6.357848644E0
3.450826149E0,1.533571243E0,6.096714020E0,7.189980030E0
3.460851878E0,4.609494805E-1,7.621050835E0,7.522007942E0
3.470883962E0,-3.188852370E-1,8.867762566E0,7.355627060E0
3.480920420E0,-1.586579561E0,1.096071529E1,5.683846951E0
3.490961410E0,-1.880687237E0,1.207360840E1,2.635996819E0
3.501005837E0,-2.447348118E0,1.360167217E1,8.630762100E-1
3.511052451E0,-3.100519180E0,1.484412575E1,1.597295761E0
3.521100003E0,-3.753679991E0,1.588269806E1,5.035067558E0
3.531139951E0,-3.961720467E0,1.688990402E1,1.063754272E1
3.541156930E0,-2.189063787E0,1.720656776E1,1.666499329E1
3.551173962E0,-4.284314811E-1,1.712800217E1,2.102544403E1
3.561191045E0,-6.878322363E-2,1.647245407E1,2.108802032E1
3.571208128E0,-1.586152911E-1,1.579732609E1,1.752601242E1
3.581198858E0,5.799388885E-2,1.522164536E1,1.330327797E1
3.591191722E0,1.794893444E-1,1.394063568E1,1.042326832E1
3.601187660E0,2.783646286E-1,1.224087143E1,8.904521942E0
3.611187347E0,4.373182058E-1,1.067356110E1,8.087524414E0
3.621191305E0,3.914309442E-1,9.369276047E0,7.802721024E0
3.631199899E0,-4.172575474E-2,8.265584946E0,7.644645214E0
3.641213285E0,-7.936689258E-1,7.397542000E0,7.205777168E0
3.651231462E0,-1.613962889E0,6.711073875E0,6.563208580E0
3.661254170E0,-2.305078983E0,6.143443108E0,5.906932354E0
3.671281045E0,-2.667089939E0,5.564594269E0,5.313347816E0
3.681311566E0,-2.890877485E0,5.068971634E0,4.822251320E0
3.691345003E0,-1.844443440E0,4.112246513E0,4.112434387E0
3.701380628E0,-1.094701529E0,3.253830910E0,2.518547058E0
3.711417555E0,-5.700123906E-1,2.644507408E0,1.005151749E0
3.721454951E0,3.041727543E-1,1.965650558E0,2.717390060E-1
3.731484743E0,6.656681299E-1,1.461609840E0,-5.537247658E-1
3.741501670E0,1.204539537E0,7.837209702E-1,-1.180239677E0
3.751518597E0,1.466409445E0,1.609296799E-1,-1.076634645E0
3.761535524E0,1.464926600E0,-3.465652466E-1,-8.537580967E-1
3.771552503E0,1.321028233E0,-6.494674683E-1,-7.730381489E-1
3.781569587E0,9.867250323E-1,-6.910409927E-1,-8.297846317E-1
3.791586722E0,5.795898438E-1,-3.004570007E-1,-6.746535301E-1
3.801603910E0,3.309734762E-1,2.907028198E-1,-2.783732414E-1
3.811621149E0,7.976377010E-2,5.645074844E-1,1.450214386E-1
3.821638441E0,-3.097596169E-1,5.883493423E-1,3.706235886E-1
3.831655785E0,-3.936731219E-1,5.014305115E-1,5.895481110E-1
3.841673128E0,-2.005757689E-1,3.427495956E-1,5.099539757E-1
3.851690472E0,5.220758915E-2,3.046073914E-1,-3.500747681E-2
3.861707816E0,4.060425758E-1,-3.254194260E-1,-5.455024242E-1
3.871725160E0,6.803315878E-1,-5.501956940E-1,-1.109818935E0
3.881742503E0,1.173402309E0,-1.092682838E0,-1.421348572E0
3.891759847E0,1.309017777E0,-1.185995102E0,-1.508010864E0
3.901777191E0,1.293503046E0,-1.242001534E0,-1.032340527E0
3.911794535E0,1.038129449E0,-1.282984734E0,-2.237329483E-1
3.921811878E0,6.754655242E-1,-1.369386196E0,8.714437485E-2
3.931829222E0,3.612301350E-1,-1.601778507E0,-1.072645187E-1
3.941846462E0,1.416686177E-1,-1.935173512E0,-4.412198067E-1
3.951863701E0,8.822700381E-2,-2.310698509E0,-7.070724964E-1
3.961880941E0,8.593478799E-2,-2.671099663E0,-8.285562992E-1
3.971898180E0,1.389188766E-1,-3.112726212E0,-9.914507866E-1
3.981915420E0,3.296954632E-1,-3.486747742E0,-1.268896103E0
3.991932712E0,6.017526388E-1,-3.988041878E0,-1.868799448E0
4.001949951E0,8.644437790E-1,-4.353035450E0,-1.992766619E0
4.011967191E0,1.170652390E0,-4.878947258E0,-2.285372734E0
4.021984430E0,1.161952972E0,-5.045087337E0,-2.386008978E0
4.032001722E0,9.655641317E-1,-5.169052124E0,-2.550185204E0
4.042019014E0,6.926735640E-1,-5.189381123E0,-2.398876190E0
4.052036149E0,4.283705354E-1,-5.091862679E0,-2.267737150E0
4.062053285E0,4.348914325E-1,-5.072311401E0,-2.320123196E0
4.072070420E0,2.598437667E-1,-5.009418488E0,-2.425587177E0
4.082087555E0,-1.910346746E-2,-4.868613720E0,-2.434242249E0
4.092078389E0,-2.280259430E-1,-4.706416130E0,-2.372912884E0
4.102071358E0,-2.431871891E-1,-4.680552483E0,-2.136769533E0
4.112067295E0,-1.630007625E-1,-4.820007801E0,-1.800991058E0
4.122066930E0,-9.071618319E-3,-5.020825863E0,-1.304511309E0
4.132070889E0,1.865873039E-1,-5.299081326E0,-8.868653774E-1
4.142079483E0,3.834561706E-1,-5.569899559E0,-7.691478729E-1
4.152092868E0,5.268172622E-1,-5.752267838E0,-7.349133492E-1
4.162111045E0,6.760162711E-1,-5.827127457E0,-7.842299938E-1
4.172133753E0,7.869272232E-1,-5.923539639E0,-7.739040852E-1
4.182160628E0,7.058796287E-1,-6.091126919E0,-4.507927895E-1
4.192189326E0,4.166182876E-1,-6.215871811E0,-7.161827087E-1
4.202221149E0,1.646849215E-1,-6.019736290E0,-8.772881031E-1
4.212255368E0,-2.746280730E-1,-5.688903809E0,-1.308904171E0
4.222291149E0,-5.520665646E-1,-5.327816486E0,-2.055400610E0
4.232327712E0,-4.673021138E-1,-4.915102005E0,-2.796980858E0
4.242363753E0,-3.818094134E-1,-4.772540092E0,-4.164167881E0
4.252380993E0,-4.268075824E-1,-4.089459896E0,-5.259631157E0
4.262398233E0,-8.926565051E-1,-3.683751106E0,-6.201934814E0
4.272415472E0,-1.251038432E0,-3.615285397E0,-6.347927570E0
4.282432712E0,-1.218617797E0,-3.705821514E0,-5.994448662E0
4.292423285E0,-7.460607290E-1,-3.869474888E0,-5.380410194E0
4.302415993E0,-2.834809422E-1,-3.979076385E0,-4.403903961E0
4.312411774E0,-6.221413612E-3,-3.965957165E0,-3.247437239E0
4.322411305E0,2.721830308E-1,-3.676161766E0,-2.163445711E0
4.332415160E0,4.512990117E-1,-3.275397778E0,-1.698509216E0
4.342423701E0,4.458002448E-1,-2.913826466E0,-1.654917240E0
4.352437087E0,2.246280760E-1,-2.644989014E0,-1.866332173E0
4.362455264E0,-1.389479637E-1,-2.457536221E0,-2.824537277E0
4.372478024E0,-2.733048499E-1,-2.266662598E0,-3.964364052E0
4.382504951E0,-3.416439295E-1,-2.188816547E0,-4.845435619E0
4.392535472E0,-4.945084155E-1,-2.293229103E0,-5.131281853E0
4.402568910E0,-5.401294231E-1,-2.558400631E0,-5.722913742E0
4.412604483E0,-2.127422839E-1,-2.991363049E0,-5.722147942E0
4.422641410E0,-1.683224589E-1,-3.270196915E0,-5.520015717E0
4.432678910E0,-2.648321092E-1,-3.549015522E0,-4.596459866E0
4.442708649E0,-4.150046706E-1,-3.701830864E0,-2.909093142E0
4.452726149E0,-3.476994038E-1,-3.948474407E0,-1.101136208E0
4.462743649E0,-1.870564520E-1,-4.379277229E0,9.825658798E-2
4.472760368E0,-2.750970982E-2,-4.695844650E0,7.930200100E-1
4.482777087E0,-2.824340947E-3,-4.837654114E0,1.033971310E0
4.492793858E0,-3.370409366E-3,-4.943579197E0,1.059560776E0
4.502810680E0,-2.136880159E-2,-5.079437256E0,9.049053192E-1
4.512827608E0,6.661335379E-2,-5.224834442E0,6.483945847E-1
4.522844587E0,1.984175593E-1,-5.354806900E0,3.879477978E-1
4.532861670E0,2.826644182E-1,-5.400841713E0,1.291494370E-1
4.542878805E0,1.893718839E-1,-5.639930248E0,-2.197444439E-1
4.552895993E0,2.403897345E-1,-5.636461258E0,-4.297404289E-1
4.562913285E0,3.153544962E-1,-5.409981728E0,-5.350182056E-1
4.572930628E0,2.177602649E-1,-5.204856873E0,-7.553968430E-1
4.582948024E0,1.342973709E-1,-5.192457199E0,-1.001196623E0
4.592965472E0,1.029482409E-1,-5.303942680E0,-1.185019732E0
4.602983024E0,1.230205670E-1,-5.389520645E0,-1.329416275E0
4.613000576E0,5.207649246E-2,-5.481765270E0,-1.561084986E0
4.623018128E0,-8.585088700E-2,-5.346183777E0,-1.584254265E0
4.633035680E0,-1.928386986E-1,-4.969304085E0,-1.508622646E0
4.643053233E0,-3.233769238E-1,-4.557532310E0,-1.567852139E0
4.653070837E0,-2.444729954E-1,-4.302176476E0,-1.632441163E0
4.663088076E0,-4.181450009E-1,-3.811163902E0,-1.534746647E0
4.673105316E0,-6.976050138E-2,-3.779306412E0,-1.558818817E0
4.683122555E0,-2.723242342E-2,-3.515759945E0,-1.770222545E0
4.693139847E0,2.358330041E-1,-3.483812332E0,-1.692569375E0
4.703157191E0,1.497382522E-1,-3.211736679E0,-1.395213127E0
4.713147399E0,-7.539710402E-2,-2.828840733E0,-7.260081768E-1
4.723139795E0,-4.709858894E-1,-2.084600925E0,2.152502537E-1
4.733135264E0,-6.849783063E-1,-1.385782719E0,9.985098839E-1
4.743134535E0,-7.387664318E-1,-6.531171799E-1,1.342144966E0
4.753138180E0,-4.901500046E-1,3.655376434E-1,1.904196978E0
4.763146566E0,-3.120342493E-1,1.515243530E0,2.203854084E0
4.773159899E0,3.008381128E-1,2.475472450E0,1.945242882E0
4.783178076E0,1.113602161E0,3.401933670E0,1.296841145E0
4.793200889E0,1.814246297E0,4.609112740E0,5.527806282E-1
4.803226774E0,2.066332817E0,5.378492355E0,-2.134048939E-1
4.813256462E0,2.290974379E0,5.633877754E0,-6.032664776E-1
4.823289274E0,2.587772608E0,5.921663284E0,-1.541328430E-2
4.833324430E0,2.188857555E0,6.252927780E0,1.034169197E0
4.843361097E0,5.068907738E-1,7.058082581E0,2.773558140E0
4.853398441E0,-1.505042672E0,8.277344704E0,4.314297199E0
4.863433337E0,-3.399798870E0,1.007642174E1,5.422183037E0
4.873451670E0,-4.396036148E0,1.164050484E1,5.945497990E0
4.883468910E0,-4.106645584E0,1.228676224E1,6.124079704E0
4.893485160E0,-2.987573385E0,1.240390778E1,6.185478687E0
4.903475368E0,-1.585326910E0,1.271924114E1,6.762432098E0
4.913467764E0,2.870792150E-2,1.294663525E1,8.252511024E0
4.923463180E0,1.011658192E0,1.332345009E1,9.929376602E0
4.933462451E0,1.389592886E0,1.379957962E1,1.084913635E1
4.943466097E0,8.756699562E-1,1.441385460E1,1.085005188E1
4.953474483E0,-3.846214712E-2,1.446853256E1,1.012231636E1
4.963486670E0,-5.833824277E-1,1.382473660E1,9.728442192E0
4.973502139E0,-6.412397623E-1,1.297435951E1,9.447675705E0
4.983522503E0,-5.150328875E-1,1.236266422E1,9.565647125E0
4.993547451E0,-4.055948853E-1,1.179041958E1,1.031520462E1
5.003575420E0,-4.426506758E-1,1.121544647E1,1.066894817E1
5.013606930E0,-4.744564891E-1,1.048051357E1,1.053602982E1
5.023641253E0,-6.692039967E-1,9.729899406E0,1.005516338E1
5.033677608E0,-1.016074777E0,8.999790192E0,9.440846443E0
5.043715108E0,-1.327620983E0,8.140845299E0,8.618764877E0
